participant,stimuli,trialNum,target_type,response,correct,block,reaction_time,trigger,
R1832,frinderás,1,word,1,True,1,1.0739679336547852,2,
R1832,gachará,2,word,1,True,1,0.8290019035339355,2,
R1832,eplabas,3,word,1,True,1,0.7929167747497559,2,
R1832,moncerá,4,word,1,True,1,0.664036750793457,2,
R1832,eplaban,5,word,1,True,1,0.632908821105957,2,
R1832,toseré,6,word,2,True,1,0.6518609523773193,1,
R1832,sesíamos,7,word,1,True,1,1.159987211227417,2,
R1832,cenábamos,8,word,2,True,1,0.7377839088439941,1,
R1832,rondaba,9,word,2,True,1,0.7370200157165527,1,
R1832,sumabas,10,word,2,True,1,0.720937967300415,1,
R1832,maftaría,11,word,1,True,1,0.7909390926361084,2,
R1832,uniré,12,word,2,True,1,0.5571742057800293,1,
R1832,sindarás,13,word,1,True,1,0.7277333736419678,2,
R1832,morderás,14,word,2,True,1,0.6178340911865234,1,
R1832,moncerán,15,word,1,True,1,0.6773350238800049,2,
R1832,ardían,16,word,2,True,1,0.6499230861663818,1,
R1832,focaríamos,17,word,1,True,1,0.6899948120117188,2,
R1832,toserías,18,word,2,True,1,0.9600729942321777,1,
R1832,uníamos,19,word,2,True,1,0.7010059356689453,1,
R1832,sauarían,20,word,1,True,1,0.6729631423950195,2,
R1832,frindías,21,word,1,True,1,0.9020416736602783,2,
R1832,formaría,22,word,2,True,1,0.6017887592315674,1,
R1832,bruviremos,23,word,1,True,1,0.6908841133117676,2,
R1832,quemarían,24,word,2,True,1,0.6749968528747559,1,
R1832,fanería,25,word,1,True,1,0.6459231376647949,2,
R1832,bigarás,26,word,1,True,1,0.7610270977020264,2,
R1832,cumplirían,27,word,2,True,1,0.7370548248291016,1,
R1832,focaremos,28,word,1,True,1,0.6149697303771973,2,
R1832,cuarrirás,29,word,1,True,1,0.7649598121643066,2,
R1832,nadábamos,30,word,2,True,1,0.831078290939331,1,
R1832,zusaba,31,word,1,True,1,0.5783476829528809,2,
R1832,maftaré,32,word,1,True,1,0.8059720993041992,2,
R1832,rondaremos,33,word,2,True,1,0.6920108795166016,1,
R1832,rimaría,34,word,2,True,1,0.7968378067016602,1,
R1832,riterían,35,word,1,True,1,0.7548410892486572,2,
R1832,ceterían,36,word,1,True,1,0.7041027545928955,2,
R1832,cuarriré,37,word,1,True,1,0.8767151832580566,2,
R1832,casaba,38,word,2,True,1,0.6160430908203125,1,
R1832,chanraríamos,39,word,1,True,1,0.8393328189849854,2,
R1832,zusábamos,40,word,1,True,1,0.6076040267944336,2,
R1832,sufrías,41,word,2,True,1,0.9889161586761475,1,
R1832,subiría,42,word,2,True,1,0.6959700584411621,1,
R1832,tuplirá,43,word,1,True,1,0.791550874710083,2,
R1832,prenderá,44,word,2,True,1,1.0648198127746582,1,
R1832,lailaban,45,word,1,True,1,0.6119868755340576,2,
R1832,gacharás,46,word,1,True,1,0.5969839096069336,2,
R1832,seseremos,47,word,1,True,1,0.6469440460205078,2,
R1832,barrerías,48,word,2,True,1,0.7790729999542236,1,
R1832,seseré,49,word,1,True,1,0.6159698963165283,2,
R1832,hondería,50,word,1,True,1,0.7167918682098389,2,
R1832,ciperá,51,word,1,True,1,0.48488903045654297,2,
R1832,partirás,52,word,2,True,1,0.775097131729126,1,
R1832,subirá,53,word,2,True,1,0.4788391590118408,1,
R1832,lameré,54,word,2,True,1,0.7520608901977539,1,
R1832,subirías,55,word,2,True,1,0.6470332145690918,1,
R1832,poreremos,56,word,1,True,1,0.9229838848114014,2,
R1832,besaremos,57,word,2,True,1,0.5679879188537598,1,
R1832,eplarían,58,word,1,True,1,0.7299778461456299,2,
R1832,tupliré,59,word,1,True,1,0.527946949005127,2,
R1832,mardirás,60,word,1,True,1,0.9179959297180176,2,
R1832,bruvirían,61,word,1,True,1,0.7738790512084961,2,
R1832,luchabas,62,word,2,True,1,0.6223018169403076,1,
R1832,formaban,63,word,2,True,1,0.49257802963256836,1,
R1832,metías,64,word,2,True,1,0.5448551177978516,1,
R1832,lucharemos,65,word,2,True,1,0.4800691604614258,1,
R1832,fundirían,66,word,2,True,1,0.4939899444580078,1,
R1832,uniríamos,67,word,2,True,1,0.47992491722106934,1,
R1832,tujía,68,word,1,True,1,0.6500091552734375,2,
R1832,obrarías,69,word,2,True,1,0.5599019527435303,1,
R1832,fanías,70,word,1,True,1,0.5545711517333984,2,
R1832,gacharías,71,word,1,True,1,0.8399941921234131,2,
R1832,prenderías,72,word,2,True,1,0.6949951648712158,1,
R1832,luntirán,73,word,1,True,1,0.5259237289428711,2,
R1832,gruñían,74,word,2,True,1,0.773813009262085,1,
R1832,cortaban,75,word,2,True,1,0.553001880645752,1,
R1832,burraríamos,76,word,1,True,1,0.7029478549957275,2,
R1832,fundirán,77,word,2,True,1,0.8997910022735596,1,
R1832,lailábamos,78,word,1,True,1,0.6638941764831543,2,
R1832,bigarían,79,word,1,True,1,0.6650092601776123,2,
R1832,lacherán,80,word,1,True,1,0.8741121292114258,2,
R1832,bimarías,81,word,1,True,1,0.5698707103729248,2,
R1832,cederían,82,word,1,False,1,0.5187778472900391,1,
R1832,rayábamos,83,word,2,True,1,0.621992826461792,1,
R1832,anreríamos,84,word,1,True,1,1.0999622344970703,2,
R1832,eplaría,85,word,1,True,1,0.6209499835968018,2,
R1832,gacharé,86,word,1,True,1,0.6398730278015137,2,
R1832,ritíamos,87,word,1,True,1,0.6158490180969238,2,
R1832,focarás,88,word,1,True,1,0.6578547954559326,2,
R1832,charlaba,89,word,2,True,1,1.7630138397216797,1,
R1832,runarían,90,word,1,True,1,0.7979519367218018,2,
R1832,sauaríamos,91,word,1,True,1,1.0384740829467773,2,
R1832,bailaba,92,word,2,True,1,0.6766679286956787,1,
R1832,unirá,93,word,2,True,1,0.6838638782501221,1,
R1832,bimaban,94,word,1,True,1,0.8175301551818848,2,
R1832,lachía,95,word,1,True,1,0.5688257217407227,2,
R1832,maftaríamos,96,word,1,True,1,0.6178948879241943,2,
R1832,pactarían,97,word,1,False,1,0.5997970104217529,1,
R1832,quemaremos,98,word,2,True,1,0.5569858551025391,1,
R1832,sumaría,99,word,2,True,1,0.6818642616271973,1,
R1832,cichirás,100,word,1,True,1,0.7398557662963867,2,
R1832,lorgábamos,101,word,1,True,1,1.0010771751403809,2,
R1832,comeré,102,word,2,True,1,0.5799160003662109,1,
R1832,gruñiré,103,word,2,True,1,0.5758898258209229,1,
R1832,sufría,104,word,2,True,1,0.6688182353973389,1,
R1832,bimaríamos,105,word,1,True,1,0.8690848350524902,2,
R1832,partirías,106,word,2,True,1,0.6047439575195312,1,
R1832,faneríamos,107,word,1,True,1,0.6500191688537598,2,
R1832,zusará,108,word,1,True,1,0.4930298328399658,2,
R1832,quijaban,109,word,1,True,1,0.5797457695007324,2,
R1832,focará,110,word,1,True,1,0.5638818740844727,2,
R1832,cubríamos,111,word,1,False,1,0.5029292106628418,1,
R1832,rayarían,112,word,2,True,1,0.7399740219116211,1,
R1832,subiré,113,word,2,True,1,0.6030750274658203,1,
R1832,prendía,114,word,2,True,1,0.516016960144043,1,
R1832,pactará,115,word,2,True,1,0.5580129623413086,1,
R1832,vultará,116,word,1,True,1,0.6889982223510742,2,
R1832,lamería,117,word,2,True,1,0.5809459686279297,1,
R1832,zusaban,118,word,1,True,1,0.5517511367797852,2,
R1832,ciperán,119,word,1,True,1,0.9159178733825684,2,
R1832,zusarán,120,word,1,True,1,0.541999101638794,2,
R1832,cichirá,121,word,1,True,1,0.5228197574615479,2,
R1832,charlaría,122,word,2,True,1,0.7739219665527344,1,
R1832,prendería,123,word,2,True,1,0.638775110244751,1,
R1832,temerás,124,word,2,True,1,0.7818560600280762,1,
R1832,rayarías,125,word,2,True,1,0.605963945388794,1,
R1832,quijarían,126,word,1,True,1,0.5918693542480469,2,
R1832,charlaríamos,127,word,2,True,1,1.184955358505249,1,
R1832,nadarías,128,word,2,True,1,0.7959370613098145,1,
R1832,focaban,129,word,1,True,1,0.7096951007843018,2,
R1832,mertaríamos,130,word,1,True,1,0.9310882091522217,2,
R1832,barríamos,131,word,2,True,1,0.6910421848297119,1,
R1832,imirán,132,word,1,True,1,0.7398698329925537,2,
R1832,ceflíamos,133,word,1,True,1,0.7179808616638184,2,
R1832,hondías,134,word,1,True,1,0.6398367881774902,2,
R1832,focaría,135,word,1,True,1,0.5468518733978271,2,
R1832,maftará,136,word,1,True,1,0.589087963104248,2,
R1832,pavábamos,137,word,1,True,1,0.5860750675201416,2,
R1832,pavarán,138,word,1,True,1,0.5059618949890137,2,
R1832,quijabas,139,word,1,True,1,0.5028109550476074,2,
R1832,riterás,140,word,1,True,1,0.5438799858093262,2,
R1832,temería,141,word,2,True,1,0.6539068222045898,1,
R1832,metería,142,word,2,True,1,0.5899662971496582,1,
R1832,eplaba,143,word,1,True,1,0.5590531826019287,2,
R1832,jurábamos,144,word,2,True,1,0.8429317474365234,1,
R1832,moncían,145,word,1,True,1,0.6249747276306152,2,
R1832,zusaremos,146,word,1,True,1,0.5511209964752197,2,
R1832,monceríamos,147,word,1,True,1,0.786297082901001,2,
R1832,bailarías,148,word,2,True,1,0.8167390823364258,1,
R1832,prenderé,149,word,2,True,1,0.6180620193481445,1,
R1832,someremos,150,word,1,True,1,0.6619360446929932,2,
R1832,bigábamos,151,word,1,True,1,0.6709580421447754,2,
R1832,cubriríamos,152,word,1,False,1,0.5890398025512695,1,
R1832,bailábamos,153,word,2,True,1,0.6260573863983154,1,
R1832,narraré,154,word,2,True,1,0.7308499813079834,1,
R1832,cichiría,155,word,1,True,1,1.2029988765716553,2,
R1832,formábamos,156,word,2,True,1,0.8084280490875244,1,
R1832,nadará,157,word,2,True,2,0.5989930629730225,1,
R1832,gruñiríamos,158,word,2,True,2,0.7248890399932861,1,
R1832,porían,159,word,1,True,2,0.6469488143920898,2,
R1832,honderás,160,word,1,True,2,0.6740560531616211,2,
R1832,imirás,161,word,1,True,2,0.722836971282959,2,
R1832,galarán,162,word,1,True,2,0.7470149993896484,2,
R1832,retaremos,163,word,2,True,2,0.8199870586395264,1,
R1832,cumplía,164,word,2,True,2,0.6398799419403076,1,
R1832,quemaba,165,word,2,True,2,0.618804931640625,1,
R1832,barreremos,166,word,2,True,2,0.727053165435791,1,
R1832,rimarías,167,word,2,True,2,0.6619930267333984,1,
R1832,coserá,168,word,2,True,2,0.5428578853607178,1,
R1832,tuplían,169,word,1,True,2,0.7290568351745605,2,
R1832,pavaríamos,170,word,1,True,2,0.6388459205627441,2,
R1832,faltábamos,171,word,2,True,2,0.6838479042053223,1,
R1832,cuarriremos,172,word,1,True,2,0.9361059665679932,2,
R1832,juraba,173,word,2,True,2,0.6629092693328857,1,
R1832,morderíamos,174,word,2,True,2,0.8471171855926514,1,
R1832,gachábamos,175,word,1,True,2,0.8190381526947021,2,
R1832,sauaban,176,word,1,True,2,0.5919301509857178,2,
R1832,barrían,177,word,2,True,2,0.5799882411956787,1,
R1832,charlarán,178,word,2,True,2,0.6728661060333252,1,
R1832,temerá,179,word,2,True,2,0.5847187042236328,1,
R1832,mardiré,180,word,1,True,2,0.8466980457305908,2,
R1832,somía,181,word,1,True,2,0.6000161170959473,2,
R1832,toserían,182,word,2,True,2,0.6519150733947754,1,
R1832,burrarás,183,word,1,True,2,0.5959999561309814,2,
R1832,pactaremos,184,word,2,True,2,0.9198689460754395,1,
R1832,anrían,185,word,1,True,2,0.565925121307373,2,
R1832,zusarían,186,word,1,True,2,0.5615270137786865,2,
R1832,rayaré,187,word,2,True,2,0.7419838905334473,1,
R1832,cubrían,188,word,2,True,2,0.5797171592712402,1,
R1832,lucharán,189,word,2,True,2,0.6401300430297852,1,
R1832,cortaré,190,word,2,True,2,0.5180568695068359,1,
R1832,bigará,191,word,1,True,2,0.6179828643798828,2,
R1832,cubriremos,192,word,2,True,2,0.5567121505737305,1,
R1832,bimarán,193,word,1,True,2,0.5500161647796631,2,
R1832,monceremos,194,word,1,True,2,1.0408122539520264,2,
R1832,vendíamos,195,word,1,False,2,0.5438852310180664,1,
R1832,morderé,196,word,2,True,2,0.6419084072113037,1,
R1832,rayaremos,197,word,2,True,2,0.7638368606567383,1,
R1832,cetarían,198,word,1,True,2,0.7329440116882324,2,
R1832,fanía,199,word,2,False,2,0.5973660945892334,2,
R1832,mordían,200,word,2,True,2,0.7050461769104004,1,
R1832,tupliríamos,201,word,1,True,2,1.0328559875488281,2,
R1832,jurarían,202,word,2,True,2,0.8059170246124268,1,
R1832,retaré,203,word,2,True,2,0.7568330764770508,1,
R1832,bimaba,204,word,1,True,2,0.5980732440948486,2,
R1832,luntirás,205,word,1,True,2,0.704056978225708,2,
R1832,somería,206,word,1,True,2,0.7118401527404785,2,
R1832,anría,207,word,1,True,2,0.5528368949890137,2,
R1832,ritían,208,word,1,True,2,0.5940630435943604,2,
R1832,formaré,209,word,2,True,2,0.6649429798126221,1,
R1832,anrerías,210,word,1,True,2,0.6518950462341309,2,
R1832,formaba,211,word,2,True,2,0.6730270385742188,1,
R1832,lachería,212,word,1,True,2,0.6778221130371094,2,
R1832,tuplirán,213,word,1,True,2,0.6168649196624756,2,
R1832,ceteremos,214,word,1,True,2,1.1279699802398682,2,
R1832,sindarán,215,word,1,True,2,0.5609662532806396,2,
R1832,honderían,216,word,1,True,2,0.5941681861877441,2,
R1832,cumpliré,217,word,2,True,2,0.7920398712158203,1,
R1832,cedería,218,word,1,False,2,0.6240942478179932,1,
R1832,gacharían,219,word,1,True,2,0.6539449691772461,2,
R1832,moncerás,220,word,1,True,2,1.0190610885620117,2,
R1832,narrará,221,word,2,True,2,0.6650099754333496,1,
R1832,somíamos,222,word,1,True,2,0.6004219055175781,2,
R1832,rondabas,223,word,2,True,2,0.6468961238861084,1,
R1832,comían,224,word,2,True,2,0.6629559993743896,1,
R1832,porerán,225,word,1,True,2,0.6590251922607422,2,
R1832,cetaban,226,word,1,True,2,0.8599722385406494,2,
R1832,cedían,227,word,1,False,2,0.5419719219207764,1,
R1832,narraban,228,word,2,True,2,0.6129951477050781,1,
R1832,venderías,229,word,2,True,2,0.775076150894165,1,
R1832,porerá,230,word,1,True,2,0.5772082805633545,2,
R1832,nadaríamos,231,word,2,True,2,0.8337879180908203,1,
R1832,comerás,232,word,2,True,2,0.5700688362121582,1,
R1832,runaríamos,233,word,1,True,2,1.1539671421051025,2,
R1832,cipía,234,word,1,True,2,0.6809127330780029,2,
R1832,tosía,235,word,2,True,2,0.743898868560791,1,
R1832,besaré,236,word,2,True,2,0.6319417953491211,1,
R1832,quijarán,237,word,1,True,2,0.6920411586761475,2,
R1832,unía,238,word,2,True,2,0.5628499984741211,1,
R1832,porías,239,word,1,True,2,0.7738609313964844,2,
R1832,formabas,240,word,2,True,2,0.8889458179473877,1,
R1832,chanraban,241,word,1,True,2,0.673900842666626,2,
R1832,correrías,242,word,2,True,2,0.6319451332092285,1,
R1832,narrábamos,243,word,2,True,2,0.6229367256164551,1,
R1832,pactaban,244,word,2,True,2,0.7060630321502686,1,
R1832,tosíamos,245,word,2,True,2,0.647010087966919,1,
R1832,arderá,246,word,2,True,2,0.8249859809875488,1,
R1832,sumaban,247,word,2,True,2,0.7388439178466797,1,
R1832,tujíamos,248,word,1,True,2,0.5849447250366211,2,
R1832,unirían,249,word,2,True,2,0.8169417381286621,1,
R1832,comerán,250,word,2,True,2,0.6538221836090088,1,
R1832,sesía,251,word,1,True,2,0.65702223777771,2,
R1832,runarás,252,word,1,True,2,0.830970048904419,2,
R1832,sufriremos,253,word,2,True,2,0.8829669952392578,1,
R1832,cuarrirán,254,word,1,True,2,0.9609060287475586,2,
R1832,rondaría,255,word,2,True,2,0.7419252395629883,1,
R1832,gacharíamos,256,word,1,True,2,1.2929883003234863,2,
R1832,gachabas,257,word,1,True,2,0.7590029239654541,2,
R1832,mertarán,258,word,1,True,2,1.392976999282837,2,
R1832,chanrarían,259,word,1,True,2,1.2098968029022217,2,
R1832,comeremos,260,word,2,True,2,0.784926176071167,1,
R1832,mardirán,261,word,1,True,2,0.9230520725250244,2,
R1832,eplará,262,word,1,True,2,0.5913758277893066,2,
R1832,temerías,263,word,2,True,2,0.9738070964813232,1,
R1832,ceflía,264,word,1,True,2,0.7160971164703369,2,
R1832,pavarían,265,word,1,True,2,0.9102351665496826,2,
R1832,lorgabas,266,word,1,True,2,0.8798508644104004,2,
R1832,coserían,267,word,2,True,2,0.5964598655700684,1,
R1832,casarían,268,word,2,True,2,0.6898739337921143,1,
R1832,cipíamos,269,word,1,True,2,0.5119607448577881,2,
R1832,cenarían,270,word,2,True,2,0.5799598693847656,1,
R1832,burrarán,271,word,1,True,2,0.5819129943847656,2,
R1832,sumarás,272,word,2,True,2,0.6230590343475342,1,
R1832,cortarán,273,word,2,True,2,0.8159439563751221,1,
R1832,charlaré,274,word,2,True,2,0.6690750122070312,1,
R1832,bimábamos,275,word,1,True,2,0.670048713684082,2,
R1832,seserías,276,word,1,True,2,0.8172211647033691,2,
R1832,mardirá,277,word,1,True,2,0.9683659076690674,2,
R1832,bimará,278,word,1,True,2,0.9703860282897949,2,
R1832,rimarás,279,word,2,True,2,1.0302729606628418,1,
R1832,nadaba,280,word,2,True,2,0.4971940517425537,1,
R1832,arderían,281,word,2,True,2,0.6250932216644287,1,
R1832,bimaremos,282,word,1,True,2,0.5544891357421875,2,
R1832,sauarán,283,word,1,True,2,0.5452179908752441,2,
R1832,eplaríamos,284,word,1,True,2,0.631148099899292,2,
R1832,pavaba,285,word,1,True,2,0.7201721668243408,2,
R1832,galaban,286,word,1,True,2,0.5056889057159424,2,
R1832,barrerá,287,word,2,True,2,0.6113770008087158,1,
R1832,pactarán,288,word,2,True,2,0.6281721591949463,1,
R1832,luchará,289,word,2,True,2,0.5371241569519043,1,
R1832,vultaremos,290,word,1,True,2,0.6395609378814697,2,
R1832,cederé,291,word,2,True,2,0.5554749965667725,1,
R1832,mordíamos,292,word,2,True,2,0.6526899337768555,1,
R1832,lailaré,293,word,1,True,2,0.6703548431396484,2,
R1832,venderás,294,word,2,True,2,0.8255689144134521,1,
R1832,nadabas,295,word,2,True,2,0.789417028427124,1,
R1832,poría,296,word,1,True,2,0.6692361831665039,2,
R1832,anreremos,297,word,1,True,2,1.5643038749694824,2,
R1832,sumaremos,298,word,2,True,2,0.627946138381958,1,
R1832,barrías,299,word,2,True,2,0.6988191604614258,1,
R1832,bruvías,300,word,1,True,2,0.5698719024658203,2,
R1832,temeré,301,word,2,True,2,0.5080678462982178,1,
R1832,tujiremos,302,word,1,True,2,0.5329639911651611,2,
R1832,retará,303,word,2,True,2,0.7329730987548828,1,
R1832,fanerías,304,word,2,False,2,0.7500321865081787,2,
R1832,ceterás,305,word,1,True,2,0.6978909969329834,2,
R1832,cenaré,306,word,2,True,2,0.5847930908203125,1,
R1832,barrerán,307,word,2,True,2,0.634030818939209,1,
R1832,prenderás,308,word,2,True,2,0.6679260730743408,1,
R1832,cisaría,309,word,1,True,2,0.5171608924865723,2,
R1832,barreríamos,310,word,2,True,2,1.235863208770752,1,
R1832,bailarán,311,word,2,True,2,0.5321142673492432,1,
R1832,cortarías,312,word,2,True,2,0.7030632495880127,1,
R1832,burrará,313,word,1,True,3,0.7611231803894043,2,
R1832,obraría,314,word,2,True,3,1.0119919776916504,1,
R1832,gruñirá,315,word,2,True,3,0.6319491863250732,1,
R1832,partían,316,word,2,True,3,0.591890811920166,1,
R1832,lailaba,317,word,1,True,3,0.5939321517944336,2,
R1832,toseríamos,318,word,2,True,3,0.8218822479248047,1,
R1832,sauarías,319,word,1,True,3,0.8228061199188232,2,
R1832,gruñíamos,320,word,2,True,3,0.595045804977417,1,
R1832,toseremos,321,word,2,True,3,0.8179879188537598,1,
R1832,venderá,322,word,2,True,3,0.6318252086639404,1,
R1832,mertaré,323,word,1,True,3,0.6829121112823486,2,
R1832,bigaba,324,word,1,True,3,0.5331530570983887,2,
R1832,sumaré,325,word,2,True,3,0.5319180488586426,1,
R1832,quijábamos,326,word,1,True,3,0.5919077396392822,2,
R1832,casaría,327,word,1,False,3,0.763002872467041,1,
R1832,bimaré,328,word,1,True,3,0.8078868389129639,2,
R1832,lorgarían,329,word,1,True,3,0.8980369567871094,2,
R1832,bigabas,330,word,1,True,3,0.7529110908508301,2,
R1832,gruñía,331,word,2,True,3,0.6190049648284912,1,
R1832,mardíamos,332,word,1,True,3,0.7140119075775146,2,
R1832,cetarás,333,word,1,True,3,0.6350879669189453,2,
R1832,imían,334,word,1,True,3,0.6889321804046631,2,
R1832,obraba,335,word,2,True,3,2.239152193069458,1,
R1832,subiremos,336,word,2,True,3,0.6330068111419678,1,
R1832,galarías,337,word,1,True,3,0.5358469486236572,2,
R1832,formaríamos,338,word,1,False,3,0.646876335144043,1,
R1832,zusarías,339,word,1,True,3,0.5399401187896729,2,
R1832,rimábamos,340,word,2,True,3,0.7718000411987305,1,
R1832,ceflería,341,word,1,True,3,0.7379331588745117,2,
R1832,lorgarás,342,word,1,True,3,0.9500670433044434,2,
R1832,corrías,343,word,2,True,3,0.7011280059814453,1,
R1832,chanraré,344,word,1,True,3,0.645334005355835,2,
R1832,retaba,345,word,2,True,3,0.7960300445556641,1,
R1832,hondíamos,346,word,1,True,3,0.6120131015777588,2,
R1832,pavarás,347,word,1,True,3,0.6221191883087158,2,
R1832,cuarriríamos,348,word,1,True,3,0.8280031681060791,2,
R1832,hondían,349,word,1,True,3,0.5492570400238037,2,
R1832,cetará,350,word,1,True,3,0.6800100803375244,2,
R1832,galaríamos,351,word,1,True,3,0.6361360549926758,2,
R1832,rondarían,352,word,2,True,3,0.8049678802490234,1,
R1832,unías,353,word,2,True,3,0.6430778503417969,1,
R1832,luchaba,354,word,2,True,3,0.7040150165557861,1,
R1832,metía,355,word,2,True,3,0.7103149890899658,1,
R1832,correrán,356,word,2,True,3,0.648688793182373,1,
R1832,bigaremos,357,word,1,True,3,0.7168869972229004,2,
R1832,pactarás,358,word,2,True,3,0.7747902870178223,1,
R1832,mertaba,359,word,1,True,3,0.637897253036499,2,
R1832,ardías,360,word,2,True,3,0.6810002326965332,1,
R1832,fundirás,361,word,2,True,3,0.9618079662322998,1,
R1832,sauaremos,362,word,1,True,3,0.6560208797454834,2,
R1832,corría,363,word,2,True,3,0.554429292678833,1,
R1832,mertaría,364,word,1,True,3,0.7219462394714355,2,
R1832,lacherían,365,word,1,True,3,0.8063399791717529,2,
R1832,gacharía,366,word,1,True,3,0.6050190925598145,2,
R1832,lucharé,367,word,2,True,3,0.5839948654174805,1,
R1832,cumplirías,368,word,2,True,3,0.7050790786743164,1,
R1832,vultabas,369,word,1,True,3,0.5713520050048828,2,
R1832,cetaría,370,word,1,True,3,0.8949370384216309,2,
R1832,porerás,371,word,1,True,3,0.5460739135742188,2,
R1832,cenaríamos,372,word,2,True,3,0.7418723106384277,1,
R1832,lorgaban,373,word,1,True,3,0.5929548740386963,2,
R1832,ceflerán,374,word,1,True,3,0.6448428630828857,2,
R1832,mardían,375,word,1,True,3,0.7489888668060303,2,
R1832,sauaba,376,word,1,True,3,0.6018929481506348,2,
R1832,sesías,377,word,1,True,3,0.6238887310028076,2,
R1832,cetería,378,word,1,True,3,0.9560539722442627,2,
R1832,coseríamos,379,word,2,True,3,1.0139970779418945,1,
R1832,obrábamos,380,word,2,True,3,0.8362858295440674,1,
R1832,cichirían,381,word,1,True,3,0.6019561290740967,2,
R1832,obrará,382,word,1,False,3,0.6448140144348145,1,
R1832,cosía,383,word,2,True,3,0.6689279079437256,1,
R1832,bailarían,384,word,2,True,3,0.6139812469482422,1,
R1832,honderá,385,word,1,True,3,0.5946109294891357,2,
R1832,temíamos,386,word,2,True,3,0.9070389270782471,1,
R1832,partirán,387,word,2,True,3,0.6530230045318604,1,
R1832,seserás,388,word,1,True,3,0.5799200534820557,2,
R1832,tujiría,389,word,1,True,3,0.6089158058166504,2,
R1832,subías,390,word,2,True,3,0.6197810173034668,1,
R1832,correré,391,word,2,True,3,0.609644889831543,1,
R1832,faltarán,392,word,2,True,3,0.5659401416778564,1,
R1832,toserá,393,word,2,True,3,0.5940008163452148,1,
R1832,faltaré,394,word,2,True,3,0.4968838691711426,1,
R1832,cubrirías,395,word,2,True,3,0.5538461208343506,1,
R1832,tuplías,396,word,1,True,3,0.5239050388336182,2,
R1832,riterán,397,word,1,True,3,0.7762260437011719,2,
R1832,cumplirás,398,word,2,True,3,0.704024076461792,1,
R1832,honderemos,399,word,1,True,3,0.6538093090057373,2,
R1832,ritías,400,word,1,True,3,0.7179088592529297,2,
R1832,obraré,401,word,2,True,3,0.6890089511871338,1,
R1832,ceteré,402,word,1,True,3,0.7543051242828369,2,
R1832,prendías,403,word,2,True,3,0.5818831920623779,1,
R1832,cortarían,404,word,2,True,3,0.7750232219696045,1,
R1832,meterás,405,word,2,True,3,0.6078710556030273,1,
R1832,fanerán,406,word,1,True,3,0.49495506286621094,2,
R1832,obrarían,407,word,2,True,3,1.3961219787597656,1,
R1832,mertarían,408,word,1,True,3,0.9859271049499512,2,
R1832,charlábamos,409,word,2,True,3,0.7250187397003174,1,
R1832,moncía,410,word,1,True,3,0.49694013595581055,2,
R1832,cumpliría,411,word,2,True,3,0.7548990249633789,1,
R1832,maftaba,412,word,1,True,3,0.6045360565185547,2,
R1832,morderemos,413,word,2,True,3,0.6419987678527832,1,
R1832,bailaré,414,word,2,True,3,0.5119650363922119,1,
R1832,frinderían,415,word,1,True,3,0.6218769550323486,2,
R1832,sumarías,416,word,2,True,3,0.6230018138885498,1,
R1832,unirás,417,word,2,True,3,0.6120412349700928,1,
R1832,pactarías,418,word,2,True,3,0.5998611450195312,1,
R1832,anrías,419,word,1,True,3,0.6480557918548584,2,
R1832,ceteríamos,420,word,1,True,3,0.8809900283813477,2,
R1832,faltarías,421,word,2,True,3,0.584791898727417,1,
R1832,focaba,422,word,1,True,3,0.6030151844024658,2,
R1832,cisarían,423,word,1,True,3,0.6689701080322266,2,
R1832,nadaré,424,word,2,True,3,0.6458978652954102,1,
R1832,focaré,425,word,1,True,3,0.5409021377563477,2,
R1832,tosería,426,word,2,True,3,0.6567292213439941,1,
R1832,sauaré,427,word,1,True,3,0.5799129009246826,2,
R1832,correríamos,428,word,2,True,3,0.6181380748748779,1,
R1832,mordías,429,word,2,True,3,0.673882007598877,1,
R1832,mertabas,430,word,1,True,3,0.6379430294036865,2,
R1832,bigaríamos,431,word,1,True,3,0.5640890598297119,2,
R1832,correrá,432,word,2,True,3,1.2109417915344238,1,
R1832,rimaba,433,word,2,True,3,0.5299971103668213,1,
R1832,sauaría,434,word,1,True,3,0.4600389003753662,2,
R1832,sauabas,435,word,1,True,3,0.5493979454040527,2,
R1832,prenderemos,436,word,2,True,3,0.6399412155151367,1,
R1832,vultarán,437,word,1,True,3,0.5240178108215332,2,
R1832,tupliremos,438,word,1,True,3,0.7168982028961182,2,
R1832,cubriría,439,word,2,True,3,0.6060259342193604,1,
R1832,quemarías,440,word,2,True,3,0.5820317268371582,1,
R1832,maftabas,441,word,1,True,3,0.5309131145477295,2,
R1832,bruviría,442,word,1,True,3,0.6240170001983643,2,
R1832,quijaremos,443,word,2,False,3,0.5180978775024414,2,
R1832,galabas,444,word,1,True,3,0.8888449668884277,2,
R1832,rimaremos,445,word,2,True,3,0.5919129848480225,1,
R1832,lorgaré,446,word,1,True,3,0.8741152286529541,2,
R1832,cipería,447,word,1,True,3,0.5799400806427002,2,
R1832,formarían,448,word,2,True,3,0.6878831386566162,1,
R1832,lucharíamos,449,word,2,True,3,0.6314609050750732,1,
R1832,lucharía,450,word,2,True,3,0.6407837867736816,1,
R1832,formarás,451,word,2,True,3,0.5704450607299805,1,
R1832,cetían,452,word,1,True,3,0.5399796962738037,2,
R1832,runaré,453,word,1,True,3,0.872992992401123,2,
R1832,lailarán,454,word,1,True,3,0.5405521392822266,2,
R1832,retarán,455,word,2,True,3,0.8549580574035645,1,
R1832,cederías,456,word,1,False,3,0.6685938835144043,1,
R1832,chanrarán,457,word,1,True,3,0.6030020713806152,2,
R1832,subía,458,word,2,True,3,0.6004810333251953,1,
R1832,ceterías,459,word,1,True,3,0.7598419189453125,2,
R1832,maftábamos,460,word,1,True,3,0.604846715927124,2,
R1832,charlarían,461,word,2,True,3,0.6429901123046875,1,
R1832,chanraremos,462,word,1,True,3,0.5807979106903076,2,
R1832,rondarás,463,word,2,True,3,0.9207499027252197,1,
R1832,bruvirán,464,word,1,True,3,0.5388522148132324,2,
R1832,arderás,465,word,1,False,3,0.4976651668548584,1,
R1832,obraban,466,word,2,True,3,0.841059684753418,1,
R1832,frinderíamos,467,word,1,True,3,0.6718201637268066,2,
R1832,porería,468,word,1,True,3,0.6487891674041748,2,
R1832,anrerá,469,word,1,True,4,0.7086610794067383,2,
R1832,bimarás,470,word,1,True,4,0.6258251667022705,2,
R1832,toserán,471,word,2,True,4,0.6000540256500244,1,
R1832,cetábamos,472,word,1,True,4,0.7457630634307861,2,
R1832,cumplirá,473,word,2,True,4,0.5389838218688965,1,
R1832,cubría,474,word,2,True,4,0.543956995010376,1,
R1832,chanraría,475,word,1,True,4,0.5750000476837158,2,
R1832,tujiré,476,word,1,True,4,0.5318667888641357,2,
R1832,bailará,477,word,2,True,4,0.6200501918792725,1,
R1832,mertarás,478,word,1,True,4,0.6330409049987793,2,
R1832,burraban,479,word,1,True,4,1.1148431301116943,2,
R1832,fundirías,480,word,2,True,4,0.6700649261474609,1,
R1832,bimabas,481,word,1,True,4,0.6691009998321533,2,
R1832,temeríamos,482,word,2,True,4,0.6538791656494141,1,
R1832,besábamos,483,word,2,True,4,0.6260640621185303,1,
R1832,riterías,484,word,1,True,4,0.6318609714508057,2,
R1832,gruñirás,485,word,2,True,4,0.6728489398956299,1,
R1832,moncerían,486,word,1,True,4,0.5940680503845215,2,
R1832,tuplíamos,487,word,1,True,4,0.6158959865570068,2,
R1832,gachaba,488,word,1,True,4,0.6290390491485596,2,
R1832,ritía,489,word,1,True,4,0.5520329475402832,2,
R1832,formarán,490,word,2,True,4,0.6863489151000977,1,
R1832,besaríamos,491,word,2,True,4,0.6501319408416748,1,
R1832,cumpliríamos,492,word,2,True,4,0.7719900608062744,1,
R1832,partíamos,493,word,2,True,4,0.7289340496063232,1,
R1832,mardirías,494,word,1,True,4,0.8019068241119385,2,
R1832,lailabas,495,word,1,True,4,0.5949571132659912,2,
R1832,sindará,496,word,1,True,4,0.5929601192474365,2,
R1832,gruñiría,497,word,2,True,4,0.8399708271026611,1,
R1832,uniremos,498,word,2,True,4,0.6260972023010254,1,
R1832,vendías,499,word,2,True,4,0.590817928314209,1,
R1832,sesían,500,word,1,True,4,0.6029889583587646,2,
R1832,lamerías,501,word,2,True,4,0.927192211151123,1,
R1832,bailarás,502,word,2,True,4,0.5319948196411133,1,
R1832,eplábamos,503,word,1,True,4,0.6989200115203857,2,
R1832,luntían,504,word,1,True,4,0.6188979148864746,2,
R1832,fundiríamos,505,word,2,True,4,0.7889821529388428,1,
R1832,bigaban,506,word,1,True,4,0.6015059947967529,2,
R1832,meterán,507,word,2,True,4,0.7255470752716064,1,
R1832,comería,508,word,2,True,4,0.5620019435882568,1,
R1832,chanraba,509,word,1,True,4,0.5440208911895752,2,
R1832,casarías,510,word,2,True,4,1.0848910808563232,1,
R1832,rotarías,511,word,1,False,4,0.7442071437835693,1,
R1832,anrerán,512,word,1,True,4,0.9380848407745361,2,
R1832,retarían,513,word,2,True,4,1.0889678001403809,1,
R1832,rotaré,514,word,2,True,4,0.8299126625061035,1,
R1832,besabas,515,word,2,True,4,0.60579514503479,1,
R1832,galaría,516,word,1,True,4,0.7380080223083496,2,
R1832,focabas,517,word,1,True,4,0.7058911323547363,2,
R1832,sufrían,518,word,2,True,4,0.6209919452667236,1,
R1832,rimarían,519,word,2,True,4,0.5630509853363037,1,
R1832,bailaría,520,word,2,True,4,0.5210838317871094,1,
R1832,vultábamos,521,word,1,True,4,0.528325080871582,2,
R1832,comía,522,word,2,True,4,0.55594801902771,1,
R1832,tujirás,523,word,1,True,4,0.5329380035400391,2,
R1832,fanerían,524,word,1,True,4,0.6418840885162354,2,
R1832,partía,525,word,2,True,4,0.6079869270324707,1,
R1832,lailará,526,word,1,True,4,0.5380079746246338,2,
R1832,ardería,527,word,2,True,4,0.6367790699005127,1,
R1832,frindían,528,word,1,True,4,0.5387771129608154,2,
R1832,temerían,529,word,2,True,4,0.7449049949645996,1,
R1832,rimará,530,word,2,True,4,0.6769199371337891,1,
R1832,pactabas,531,word,2,True,4,0.8499979972839355,1,
R1832,faltaremos,532,word,2,True,4,0.8137788772583008,1,
R1832,cumplíamos,533,word,2,True,4,0.6000368595123291,1,
R1832,ceflías,534,word,1,True,4,0.5572609901428223,2,
R1832,coserás,535,word,2,True,4,0.7998912334442139,1,
R1832,cisaban,536,word,1,True,4,1.1260137557983398,2,
R1832,lorgaríamos,537,word,1,True,4,1.1360340118408203,2,
R1832,nadarán,538,word,2,True,4,0.7410297393798828,1,
R1832,comíamos,539,word,2,True,4,0.4989140033721924,1,
R1832,cichiríamos,540,word,1,True,4,0.6309659481048584,2,
R1832,comerían,541,word,2,True,4,0.6280887126922607,1,
R1832,correrás,542,word,2,True,4,0.5908510684967041,1,
R1832,gruñiremos,543,word,2,True,4,0.6160759925842285,1,
R1832,porerías,544,word,1,True,4,0.5768980979919434,2,
R1832,sindaría,545,word,1,True,4,0.5777010917663574,2,
R1832,subían,546,word,2,True,4,0.615095853805542,1,
R1832,rimarán,547,word,2,True,4,0.5957987308502197,1,
R1832,faneré,548,word,1,True,4,0.5169730186462402,2,
R1832,luntiremos,549,word,1,True,4,0.577003002166748,2,
R1832,comeríamos,550,word,2,True,4,0.539971113204956,1,
R1832,cortábamos,551,word,2,True,4,0.9118261337280273,1,
R1832,metíamos,552,word,2,True,4,0.5270810127258301,1,
R1832,sufriré,553,word,2,True,4,0.5238020420074463,1,
R1832,riteremos,554,word,1,True,4,0.5358657836914062,2,
R1832,honderé,555,word,1,True,4,0.7049028873443604,2,
R1832,ciperemos,556,word,1,True,4,0.6357650756835938,2,
R1832,somerías,557,word,1,True,4,0.9428830146789551,2,
R1832,rondaban,558,word,2,True,4,0.6159610748291016,1,
R1832,lamía,559,word,2,True,4,0.7399442195892334,1,
R1832,burrarías,560,word,1,True,4,0.9859850406646729,2,
R1832,lorgaremos,561,word,1,True,4,1.0589380264282227,2,
R1832,ciperás,562,word,1,True,4,0.6930930614471436,2,
R1832,cenará,563,word,2,True,4,0.6319911479949951,1,
R1832,zusaríamos,564,word,1,True,4,0.546029806137085,2,
R1832,runaban,565,word,1,True,4,0.7180771827697754,2,
R1832,cichíamos,566,word,1,True,4,0.6401090621948242,2,
R1832,venderían,567,word,2,True,4,0.5898890495300293,1,
R1832,retaría,568,word,2,True,4,0.5648581981658936,1,
R1832,frinderé,569,word,1,True,4,0.5560441017150879,2,
R1832,someré,570,word,1,True,4,0.7561099529266357,2,
R1832,lucharás,571,word,2,True,4,0.5468649864196777,1,
R1832,cederás,572,word,2,True,4,0.7748970985412598,1,
R1832,gacharemos,573,word,1,True,4,0.53603196144104,2,
R1832,galará,574,word,1,True,4,0.5280728340148926,2,
R1832,coserán,575,word,2,True,4,0.6318972110748291,1,
R1832,narrarán,576,word,2,True,4,0.6710917949676514,1,
R1832,sindaba,577,word,1,True,4,0.5179545879364014,2,
R1832,formaremos,578,word,2,True,4,0.6608798503875732,1,
R1832,lamíamos,579,word,2,True,4,0.6649219989776611,1,
R1832,rimaríamos,580,word,2,True,4,0.7099487781524658,1,
R1832,runaba,581,word,1,True,4,0.7107679843902588,2,
R1832,imirá,582,word,1,True,4,0.6270279884338379,2,
R1832,somerán,583,word,1,True,4,0.7580070495605469,2,
R1832,imirían,584,word,1,True,4,0.6667602062225342,2,
R1832,nadaría,585,word,2,True,4,0.708981990814209,1,
R1832,sindaremos,586,word,1,True,4,0.6090071201324463,2,
R1832,meterían,587,word,2,True,4,0.619002103805542,1,
R1832,faltabas,588,word,2,True,4,0.5779328346252441,1,
R1832,sufrirás,589,word,2,True,4,0.5719218254089355,1,
R1832,porerían,590,word,1,True,4,0.5738551616668701,2,
R1832,lachías,591,word,1,True,4,0.758958101272583,2,
R1832,tupliría,592,word,1,True,4,0.5389721393585205,2,
R1832,cuarriría,593,word,1,True,4,0.6098370552062988,2,
R1832,besarán,594,word,2,True,4,0.5639948844909668,1,
R1832,cenaban,595,word,2,True,4,0.4899730682373047,1,
R1832,cosían,596,word,2,True,4,0.5241811275482178,1,
R1832,frindería,597,word,1,True,4,0.6038470268249512,2,
R1832,lacherías,598,word,1,True,4,0.644989013671875,2,
R1832,cetía,599,word,1,True,4,0.4988830089569092,2,
R1832,prendían,600,word,2,True,4,0.6989748477935791,1,
R1832,quemarán,601,word,2,True,4,0.6887772083282471,1,
R1832,bruvían,602,word,1,True,4,0.6149282455444336,2,
R1832,rotaríamos,603,word,2,True,4,0.7839784622192383,1,
R1832,tujirías,604,word,1,True,4,0.5948951244354248,2,
R1832,cefleríamos,605,word,1,True,4,0.6339960098266602,2,
R1832,rimabas,606,word,2,True,4,0.866257905960083,1,
R1832,galarás,607,word,1,True,4,0.5837728977203369,2,
R1832,barreré,608,word,2,True,4,0.5869810581207275,1,
R1832,meteríamos,609,word,2,True,4,0.6778512001037598,1,
R1832,casaré,610,word,2,True,4,0.5080058574676514,1,
R1832,bailaremos,611,word,2,True,4,0.5178799629211426,1,
R1832,imía,612,word,1,True,4,0.7188832759857178,2,
R1832,burraría,613,word,1,True,4,0.6677908897399902,2,
R1832,ceflerías,614,word,1,True,4,0.570706844329834,2,
R1832,sindaríamos,615,word,1,True,4,0.6240010261535645,2,
R1832,moncías,616,word,1,True,4,0.561549186706543,2,
R1832,tosías,617,word,2,True,4,0.759047269821167,1,
R1832,mardía,618,word,1,True,4,0.7600021362304688,2,
R1832,cefleré,619,word,1,True,4,0.65997314453125,2,
R1832,morderías,620,word,2,True,4,0.7118897438049316,1,
R1832,eplaremos,621,word,1,True,4,0.9178769588470459,2,
R1832,casaban,622,word,2,True,4,0.7218906879425049,1,
R1832,pactaríamos,623,word,2,True,4,0.8589842319488525,1,
R1832,burraba,624,word,1,True,4,0.6256489753723145,2,
R1832,morderá,625,word,2,True,5,0.6539390087127686,1,
R1832,besarás,626,word,2,True,5,0.5178792476654053,1,
R1832,cenabas,627,word,2,True,5,0.49001097679138184,1,
R1832,partiré,628,word,2,True,5,0.5139591693878174,1,
R1832,cederemos,629,word,1,False,5,0.6489629745483398,1,
R1832,comías,630,word,2,True,5,0.6540250778198242,1,
R1832,quijarías,631,word,1,True,5,0.5910248756408691,2,
R1832,partiremos,632,word,2,True,5,0.5919592380523682,1,
R1832,juraríamos,633,word,2,True,5,0.8130960464477539,1,
R1832,bruvirás,634,word,1,True,5,0.5969548225402832,2,
R1832,narraba,635,word,2,True,5,0.6046619415283203,1,
R1832,zusaría,636,word,1,True,5,0.513038158416748,2,
R1832,jurarás,637,word,2,True,5,0.8734011650085449,1,
R1832,quemaban,638,word,2,True,5,0.5379838943481445,1,
R1832,meteré,639,word,2,True,5,0.5289580821990967,1,
R1832,arderemos,640,word,2,True,5,0.6381239891052246,1,
R1832,vultaban,641,word,1,True,5,0.6199691295623779,2,
R1832,retabas,642,word,2,True,5,0.666295051574707,1,
R1832,correrían,643,word,2,True,5,0.49190711975097656,1,
R1832,rotaría,644,word,2,True,5,0.5187981128692627,1,
R1832,cetaba,645,word,1,True,5,0.5629019737243652,2,
R1832,cisaremos,646,word,1,True,5,0.6280078887939453,2,
R1832,jurarías,647,word,2,True,5,0.5388400554656982,1,
R1832,sumaba,648,word,2,True,5,0.6379451751708984,1,
R1832,fundía,649,word,2,True,5,0.532041072845459,1,
R1832,cetaré,650,word,1,True,5,0.5309829711914062,2,
R1832,obrarás,651,word,2,True,5,0.7221040725708008,1,
R1832,lucharían,652,word,2,True,5,0.5790009498596191,1,
R1832,obraríamos,653,word,2,True,5,0.631432056427002,1,
R1832,tuplirás,654,word,1,True,5,0.604017972946167,2,
R1832,sumarían,655,word,2,True,5,0.5650277137756348,1,
R1832,pavaré,656,word,1,True,5,0.5058507919311523,2,
R1832,sauábamos,657,word,1,True,5,1.0568530559539795,2,
R1832,sauarás,658,word,1,True,5,0.5627949237823486,2,
R1832,anrerás,659,word,1,True,5,0.5738439559936523,2,
R1832,lamían,660,word,2,True,5,0.5899488925933838,1,
R1832,fanerás,661,word,1,True,5,0.5209870338439941,2,
R1832,vultarás,662,word,1,True,5,0.6228549480438232,2,
R1832,quemará,663,word,2,True,5,0.5760362148284912,1,
R1832,cenaría,664,word,2,True,5,0.9370279312133789,1,
R1832,rotarás,665,word,2,True,5,0.5911130905151367,1,
R1832,maftarán,666,word,1,True,5,0.5598032474517822,2,
R1832,mertaremos,667,word,1,True,5,0.87990403175354,2,
R1832,sauará,668,word,1,True,5,0.566986083984375,2,
R1832,cenarán,669,word,2,True,5,0.6249089241027832,1,
R1832,prendíamos,670,word,2,True,5,0.6658730506896973,1,
R1832,burrarían,671,word,1,True,5,0.6068909168243408,2,
R1832,chanrábamos,672,word,1,True,5,0.667104959487915,2,
R1832,frinderá,673,word,1,True,5,0.7000269889831543,2,
R1832,maftarían,674,word,1,True,5,0.5608932971954346,2,
R1832,lacheremos,675,word,1,True,5,0.5729000568389893,2,
R1832,faltará,676,word,2,True,5,0.6890361309051514,1,
R1832,monceré,677,word,1,True,5,0.5819251537322998,2,
R1832,barría,678,word,2,True,5,0.5951180458068848,1,
R1832,morderían,679,word,2,True,5,0.5279629230499268,1,
R1832,runará,680,word,1,True,5,0.6426529884338379,2,
R1832,burraremos,681,word,1,True,5,0.9560251235961914,2,
R1832,cosería,682,word,2,True,5,0.6547889709472656,1,
R1832,quemaré,683,word,2,True,5,0.5090408325195312,1,
R1832,coseré,684,word,2,True,5,0.45103907585144043,1,
R1832,eplarán,685,word,1,True,5,0.5089728832244873,2,
R1832,cumplirán,686,word,2,True,5,0.5809910297393799,1,
R1832,tujirían,687,word,1,True,5,0.5028979778289795,2,
R1832,sumará,688,word,2,True,5,0.5279941558837891,1,
R1832,bruviré,689,word,1,True,5,0.5269381999969482,2,
R1832,gruñías,690,word,2,True,5,0.6239972114562988,1,
R1832,cosías,691,word,2,True,5,0.4990060329437256,1,
R1832,luntiríamos,692,word,1,True,5,2.155892848968506,2,
R1832,rotarán,693,word,2,True,5,0.6910600662231445,1,
R1832,cedías,694,word,2,True,5,0.7809548377990723,1,
R1832,juraría,695,word,2,True,5,0.6199557781219482,1,
R1832,rondaríamos,696,word,2,True,5,0.762131929397583,1,
R1832,faltaríamos,697,word,2,True,5,0.5700850486755371,1,
R1832,faneremos,698,word,1,True,5,0.7508254051208496,2,
R1832,cortará,699,word,2,True,5,0.5289170742034912,1,
R1832,sindarías,700,word,1,True,5,0.5221099853515625,2,
R1832,quemarás,701,word,2,True,5,0.6048650741577148,1,
R1832,lamerán,702,word,2,True,5,0.6220448017120361,1,
R1832,cortaríamos,703,word,2,True,5,0.5890591144561768,1,
R1832,pavará,704,word,1,True,5,0.5876421928405762,2,
R1832,vendían,705,word,2,True,5,0.5499391555786133,1,
R1832,besarías,706,word,2,True,5,0.501068115234375,1,
R1832,juraremos,707,word,2,True,5,0.577812910079956,1,
R1832,focábamos,708,word,1,True,5,0.5490961074829102,2,
R1832,vultaríamos,709,word,1,True,5,0.5390958786010742,2,
R1832,correremos,710,word,2,True,5,0.6246428489685059,1,
R1832,lailaremos,711,word,1,True,5,0.5642640590667725,2,
R1832,ceflerás,712,word,1,True,5,0.5489070415496826,2,
R1832,cubrirá,713,word,2,True,5,0.5616908073425293,1,
R1832,tujiríamos,714,word,1,True,5,0.5652470588684082,2,
R1832,faltarían,715,word,2,True,5,0.5381219387054443,1,
R1832,moncíamos,716,word,1,True,5,0.5691170692443848,2,
R1832,jurabas,717,word,2,True,5,0.5223028659820557,1,
R1832,mordería,718,word,2,True,5,0.53621506690979,1,
R1832,unirías,719,word,2,True,5,0.6001448631286621,1,
R1832,ciperías,720,word,1,True,5,0.6050479412078857,2,
R1832,vultaría,721,word,1,True,5,0.6427211761474609,2,
R1832,fundías,722,word,2,True,5,0.5689582824707031,1,
R1832,seserían,723,word,1,True,5,0.7081630229949951,2,
R1832,mardías,724,word,1,True,5,0.6721022129058838,2,
R1832,corrían,725,word,2,True,5,0.5761117935180664,1,
R1832,runábamos,726,word,1,True,5,0.525101900100708,2,
R1832,nadarás,727,word,2,True,5,0.6511342525482178,1,
R1832,charlaremos,728,word,2,True,5,0.7173581123352051,1,
R1832,cenarás,729,word,2,True,5,0.5295619964599609,1,
R1832,narrarías,730,word,2,True,5,0.6026971340179443,1,
R1832,burrabas,731,word,1,True,5,0.5461382865905762,2,
R1832,quijaría,732,word,1,True,5,0.5672421455383301,2,
R1832,cubrirían,733,word,2,True,5,0.6110682487487793,1,
R1832,casaremos,734,word,2,True,5,0.747962236404419,1,
R1832,subirás,735,word,2,True,5,0.760911226272583,1,
R1832,imiré,736,word,1,True,5,0.6840498447418213,2,
R1832,casábamos,737,word,2,True,5,0.6340138912200928,1,
R1832,barrerían,738,word,2,True,5,0.548954963684082,1,
R1832,meterías,739,word,2,True,5,0.7188670635223389,1,
R1832,casarás,740,word,2,True,5,0.5139260292053223,1,
R1832,quemábamos,741,word,2,True,5,0.5158746242523193,1,
R1832,runabas,742,word,1,True,5,0.585813045501709,2,
R1832,luntiré,743,word,1,True,5,0.5878891944885254,2,
R1832,metían,744,word,2,True,5,0.5488529205322266,1,
R1832,lorgaba,745,word,1,True,5,0.5859417915344238,2,
R1832,comerías,746,word,2,True,5,0.6248672008514404,1,
R1832,luchaban,747,word,2,True,5,0.7110381126403809,1,
R1832,faltaría,748,word,2,True,5,0.6557910442352295,1,
R1832,besará,749,word,2,True,5,0.5219650268554688,1,
R1832,anríamos,750,word,1,True,5,0.6500279903411865,2,
R1832,tuplirías,751,word,1,True,5,0.5806503295898438,2,
R1832,ceterá,752,word,1,True,5,0.4811570644378662,2,
R1832,subirían,753,word,2,True,5,0.6480958461761475,1,
R1832,luntirían,754,word,1,True,5,0.5938079357147217,2,
R1832,gacharán,755,word,1,True,5,0.540963888168335,2,
R1832,cortaría,756,word,2,True,5,0.7395510673522949,1,
R1832,cuarrías,757,word,1,True,5,0.6760458946228027,2,
R1832,temeremos,758,word,1,False,5,0.5180151462554932,1,
R1832,lorgarías,759,word,1,True,5,0.7800798416137695,2,
R1832,gruñirías,760,word,2,True,5,0.6299059391021729,1,
R1832,retarás,761,word,2,True,5,0.6369428634643555,1,
R1832,retábamos,762,word,2,True,5,0.6388101577758789,1,
R1832,sufriríamos,763,word,2,True,5,0.6070451736450195,1,
R1832,quijarás,764,word,1,True,5,0.5609240531921387,2,
R1832,cisará,765,word,1,True,5,0.48279809951782227,2,
R1832,cisarías,766,word,1,True,5,0.5990159511566162,2,
R1832,frindíamos,767,word,1,True,5,0.6834921836853027,2,
R1832,gachaban,768,word,1,True,5,0.5598709583282471,2,
R1832,lachíamos,769,word,1,True,5,0.5059969425201416,2,
R1832,temían,770,word,2,True,5,0.593768835067749,1,
R1832,lameremos,771,word,2,True,5,0.7960667610168457,1,
R1832,rayarán,772,word,2,True,5,0.6649038791656494,1,
R1832,cetíamos,773,word,1,True,5,0.6110789775848389,2,
R1832,luntíamos,774,word,1,True,5,0.5459027290344238,2,
R1832,rondarías,775,word,2,True,5,0.6061089038848877,1,
R1832,moncerías,776,word,1,True,5,0.6748433113098145,2,
R1832,rayaba,777,word,2,True,5,0.6541049480438232,1,
R1832,fundirá,778,word,2,True,5,0.6028108596801758,1,
R1832,rayaban,779,word,2,True,5,0.595855712890625,1,
R1832,toserás,780,word,2,True,5,0.6819639205932617,1,
R1832,cetías,781,word,1,True,6,0.773935079574585,2,
R1832,faltarás,782,word,2,True,6,0.6630008220672607,1,
R1832,chanrará,783,word,1,True,6,0.5908660888671875,2,
R1832,cederán,784,word,2,True,6,0.6389529705047607,1,
R1832,venderé,785,word,2,True,6,0.5429298877716064,1,
R1832,lailarían,786,word,1,True,6,0.5528261661529541,2,
R1832,sesería,787,word,1,True,6,0.5690402984619141,2,
R1832,coseremos,788,word,2,True,6,0.6280381679534912,1,
R1832,riteríamos,789,word,1,True,6,0.5989351272583008,2,
R1832,pavaban,790,word,1,True,6,0.47204113006591797,2,
R1832,rimaban,791,word,2,True,6,0.6609060764312744,1,
R1832,imiríamos,792,word,1,True,6,0.6289608478546143,2,
R1832,coserías,793,word,2,True,6,0.623924970626831,1,
R1832,somías,794,word,1,True,6,0.5415921211242676,2,
R1832,cefleremos,795,word,1,True,6,0.6169788837432861,2,
R1832,tujían,796,word,1,True,6,0.5810260772705078,2,
R1832,prenderían,797,word,2,True,6,0.7480857372283936,1,
R1832,eplarás,798,word,1,True,6,0.5960359573364258,2,
R1832,frinderemos,799,word,1,True,6,0.5513861179351807,2,
R1832,mardiríamos,800,word,1,True,6,1.0639879703521729,2,
R1832,cichías,801,word,1,True,6,0.6889889240264893,2,
R1832,cisaba,802,word,1,True,6,0.5430750846862793,2,
R1832,lamías,803,word,2,True,6,0.8198959827423096,1,
R1832,cetaríamos,804,word,1,True,6,0.6128420829772949,2,
R1832,tujirá,805,word,1,True,6,0.7234029769897461,2,
R1832,bailabas,806,word,2,True,6,0.6739747524261475,1,
R1832,lorgarán,807,word,1,True,6,0.6380681991577148,2,
R1832,venderemos,808,word,2,True,6,0.5728271007537842,1,
R1832,fundiré,809,word,2,True,6,0.6108789443969727,1,
R1832,cumplías,810,word,2,True,6,0.5629191398620605,1,
R1832,meteremos,811,word,2,True,6,0.5359890460968018,1,
R1832,lorgaría,812,word,1,True,6,0.6810512542724609,2,
R1832,rotará,813,word,2,True,6,0.5569958686828613,1,
R1832,cedía,814,word,2,True,6,0.5511748790740967,1,
R1832,cuarrirá,815,word,1,True,6,0.553948163986206,2,
R1832,quemaría,816,word,2,True,6,0.6091268062591553,1,
R1832,quemabas,817,word,2,True,6,0.5797989368438721,1,
R1832,cenaba,818,word,2,True,6,0.47501587867736816,1,
R1832,retarías,819,word,2,True,6,0.8620688915252686,1,
R1832,correría,820,word,2,True,6,0.495898962020874,1,
R1832,temía,821,word,2,True,6,0.51009202003479,1,
R1832,cichiremos,822,word,1,True,6,0.5849757194519043,2,
R1832,maftarías,823,word,1,True,6,0.6019840240478516,2,
R1832,formarías,824,word,2,True,6,0.599998950958252,1,
R1832,cumpliremos,825,word,2,True,6,0.6250197887420654,1,
R1832,cetaremos,826,word,1,True,6,0.5678830146789551,2,
R1832,somerás,827,word,1,True,6,0.821843147277832,2,
R1832,cisabas,828,word,1,True,6,0.5729999542236328,2,
R1832,pactábamos,829,word,2,True,6,0.7683298587799072,1,
R1832,anrería,830,word,1,True,6,0.633709192276001,2,
R1832,barrería,831,word,2,True,6,0.5430331230163574,1,
R1832,luntiría,832,word,1,True,6,0.5450711250305176,2,
R1832,lachían,833,word,1,True,6,0.6259667873382568,2,
R1832,cosíamos,834,word,2,True,6,0.6098239421844482,1,
R1832,ceflían,835,word,1,True,6,0.6769788265228271,2,
R1832,someríamos,836,word,1,True,6,1.1919829845428467,2,
R1832,cuarrían,837,word,1,True,6,0.7190661430358887,2,
R1832,cuarríamos,838,word,1,True,6,0.6279919147491455,2,
R1832,cetarán,839,word,1,True,6,0.6737771034240723,2,
R1832,imías,840,word,1,True,6,0.6570203304290771,2,
R1832,seserá,841,word,1,True,6,0.5718719959259033,2,
R1832,prenderán,842,word,2,True,6,0.7010009288787842,1,
R1832,runaremos,843,word,1,True,6,0.6919059753417969,2,
R1832,mertábamos,844,word,1,True,6,0.6800951957702637,2,
R1832,chanrarás,845,word,1,True,6,0.6248130798339844,2,
R1832,cichirán,846,word,1,True,6,0.5249230861663818,2,
R1832,ardía,847,word,2,True,6,0.718878984451294,1,
R1832,imirías,848,word,1,True,6,0.7091116905212402,2,
R1832,frinderías,849,word,1,True,6,0.5640361309051514,2,
R1832,poreré,850,word,1,True,6,0.600045919418335,2,
R1832,lailaría,851,word,1,True,6,0.6423168182373047,2,
R1832,ardíamos,852,word,2,True,6,0.8590919971466064,1,
R1832,chanrarías,853,word,1,True,6,0.541071891784668,2,
R1832,pactaría,854,word,2,True,6,1.0600709915161133,1,
R1832,lucharías,855,word,2,True,6,0.8939530849456787,1,
R1832,charlarías,856,word,2,True,6,0.8459618091583252,1,
R1832,burraré,857,word,1,True,6,0.7209248542785645,2,
R1832,rayará,858,word,2,True,6,0.6860709190368652,1,
R1832,rayabas,859,word,2,True,6,0.5878579616546631,1,
R1832,narraremos,860,word,2,True,6,0.6954331398010254,1,
R1832,subiríamos,861,word,2,True,6,0.5339400768280029,1,
R1832,cubrirás,862,word,2,True,6,0.5398299694061279,1,
R1832,rotaban,863,word,2,True,6,0.5277600288391113,1,
R1832,bruvirá,864,word,1,True,6,0.5883352756500244,2,
R1832,cisábamos,865,word,1,True,6,0.5710122585296631,2,
R1832,tuplirían,866,word,1,True,6,0.5770201683044434,2,
R1832,bigarías,867,word,1,True,6,0.5999486446380615,2,
R1832,galarían,868,word,1,True,6,0.7090952396392822,2,
R1832,luntirá,869,word,1,True,6,0.5251750946044922,2,
R1832,zusarás,870,word,1,True,6,0.4847400188446045,2,
R1832,cuarría,871,word,1,True,6,0.5358526706695557,2,
R1832,mertarías,872,word,1,True,6,0.7179930210113525,2,
R1832,retaban,873,word,2,True,6,0.6168608665466309,1,
R1832,luntía,874,word,1,True,6,0.5799870491027832,2,
R1832,charlaban,875,word,2,True,6,0.7289252281188965,1,
R1832,besaría,876,word,2,True,6,2.681936025619507,1,
R1832,pactaré,877,word,2,True,6,0.5749812126159668,1,
R1832,cisaríamos,878,word,1,True,6,0.5989377498626709,2,
R1832,somían,879,word,1,True,6,0.83005690574646,2,
R1832,casaríamos,880,word,2,True,6,1.1719129085540771,1,
R1832,cetabas,881,word,1,True,6,0.5660548210144043,2,
R1832,vultarían,882,word,1,True,6,0.5580029487609863,2,
R1832,cipían,883,word,1,True,6,0.47597694396972656,2,
R1832,lacheríamos,884,word,1,True,6,0.597905158996582,2,
R1832,subirán,885,word,2,True,6,0.5479869842529297,1,
R1832,cortaremos,886,word,2,True,6,0.5749778747558594,1,
R1832,sufriría,887,word,2,True,6,0.5359458923339844,1,
R1832,venderíamos,888,word,2,True,6,0.5750439167022705,1,
R1832,rayaríamos,889,word,2,True,6,0.6138772964477539,1,
R1832,vultarías,890,word,1,True,6,0.6279442310333252,2,
R1832,focarías,891,word,1,True,6,0.6569132804870605,2,
R1832,cuarrirían,892,word,1,True,6,0.6968810558319092,2,
R1832,arderé,893,word,2,True,6,0.5368351936340332,1,
R1832,cipías,894,word,1,True,6,0.5279600620269775,2,
R1832,sufríamos,895,word,2,True,6,0.6729528903961182,1,
R1832,lorgará,896,word,1,True,6,0.60788893699646,2,
R1832,besaban,897,word,2,True,6,0.5547080039978027,1,
R1832,arderíamos,898,word,2,True,6,0.5740032196044922,1,
R1832,besarían,899,word,2,True,6,0.518975019454956,1,
R1832,seserán,900,word,1,True,6,0.5219428539276123,2,
R1832,luntirías,901,word,1,True,6,0.5529639720916748,2,
R1832,bruvía,902,word,1,True,6,0.4770979881286621,2,
R1832,cisaré,903,word,1,True,6,0.5378410816192627,2,
R1832,unirán,904,word,2,True,6,0.7340552806854248,1,
R1832,charlabas,905,word,2,True,6,0.5750579833984375,1,
R1832,pavarías,906,word,1,True,6,0.5339541435241699,2,
R1832,bigaría,907,word,1,True,6,0.5008928775787354,2,
R1832,cederíamos,908,word,1,False,6,0.5720419883728027,1,
R1832,cubrirán,909,word,2,True,6,0.5870060920715332,1,
R1832,bruvirías,910,word,1,True,6,0.5429449081420898,2,
R1832,anrerían,911,word,1,True,6,0.7798829078674316,2,
R1832,nadaremos,912,word,2,True,6,0.5749912261962891,1,
R1832,pavaría,913,word,1,True,6,0.4940361976623535,2,
R1832,cenaremos,914,word,2,True,6,0.521747350692749,1,
R1832,sindabas,915,word,1,True,6,0.5090160369873047,2,
R1832,ceterán,916,word,1,True,6,0.6878228187561035,2,
R1832,poreríamos,917,word,1,True,6,0.7858071327209473,2,
R1832,charlarás,918,word,1,False,6,0.96014404296875,1,
R1832,rondará,919,word,2,True,6,0.6115951538085938,1,
R1832,tuplía,920,word,1,True,6,0.5698637962341309,2,
R1832,temerán,921,word,2,True,6,0.6339969635009766,1,
R1832,narraría,922,word,2,True,6,0.6073720455169678,1,
R1832,somerían,923,word,1,True,6,0.5728728771209717,2,
R1832,vendía,924,word,2,True,6,1.038104772567749,1,
R1832,eplaré,925,word,1,True,6,0.6239211559295654,2,
R1832,eplarías,926,word,1,True,6,0.7812280654907227,2,
R1832,cetarías,927,word,1,True,6,0.6580049991607666,2,
R1832,maftarás,928,word,1,True,6,0.556973934173584,2,
R1832,obrarán,929,word,2,True,6,0.771885871887207,1,
R1832,casabas,930,word,2,True,6,0.9210450649261475,1,
R1832,meterá,931,word,2,True,6,0.5269949436187744,1,
R1832,obrabas,932,word,2,True,6,0.5086970329284668,1,
R1832,mardiría,933,word,1,True,6,0.7775900363922119,2,
R1832,gruñirían,934,word,2,True,6,0.6807937622070312,1,
R1832,honderías,935,word,1,True,6,0.6030938625335693,2,
R1832,lailarás,936,word,1,True,6,0.8180310726165771,2,
R1832,galaremos,937,word,1,True,7,0.6659090518951416,2,
R1832,gruñirán,938,word,2,True,7,0.5558419227600098,1,
R1832,casarán,939,word,2,True,7,0.5049488544464111,1,
R1832,rotaremos,940,word,2,True,7,0.5400490760803223,1,
R1832,mertará,941,word,1,True,7,0.5867810249328613,2,
R1832,rayaría,942,word,2,True,7,0.5519199371337891,1,
R1832,narrarás,943,word,2,True,7,0.5340771675109863,1,
R1832,subíamos,944,word,2,True,7,0.5389480590820312,1,
R1832,jurará,945,word,2,True,7,0.6429340839385986,1,
R1832,prenderíamos,946,word,2,True,7,0.7249960899353027,1,
R1832,galaba,947,word,1,True,7,0.5379328727722168,2,
R1832,cumplían,948,word,2,True,7,0.554069995880127,1,
R1832,rondaré,949,word,2,True,7,0.5217716693878174,1,
R1832,tujías,950,word,1,True,7,0.535977840423584,2,
R1832,partirían,951,word,2,True,7,0.5201148986816406,1,
R1832,sindarían,952,word,1,True,7,0.6629519462585449,2,
R1832,focarían,953,word,1,True,7,0.6986079216003418,2,
R1832,lameríamos,954,word,2,True,7,1.0018880367279053,1,
R1832,riterá,955,word,1,True,7,0.6579411029815674,2,
R1832,pactaba,956,word,2,True,7,0.6649351119995117,1,
R1832,runarán,957,word,1,True,7,0.5654189586639404,2,
R1832,cichía,958,word,1,True,7,0.6119370460510254,2,
R1832,maftaban,959,word,1,True,7,0.6129481792449951,2,
R1832,runarías,960,word,1,True,7,0.717972993850708,2,
R1832,fanerá,961,word,1,True,7,0.5818889141082764,2,
R1832,ciperíamos,962,word,1,True,7,0.6035206317901611,2,
R1832,lacheré,963,word,1,True,7,0.5579719543457031,2,
R1832,retaríamos,964,word,2,True,7,1.033991813659668,1,
R1832,ceflerían,965,word,1,True,7,0.6148731708526611,2,
R1832,obraremos,966,word,2,True,7,0.6189608573913574,1,
R1832,cichiré,967,word,1,True,7,0.5760812759399414,2,
R1832,runaría,968,word,1,True,7,0.7420721054077148,2,
R1832,frinderán,969,word,1,True,7,0.5850532054901123,2,
R1832,bimarían,970,word,1,True,7,1.1050097942352295,2,
R1832,fundíamos,971,word,2,True,7,0.7030048370361328,1,
R1832,cuarrirías,972,word,1,True,7,0.7939550876617432,2,
R1832,imiría,973,word,1,True,7,0.7132539749145508,2,
R1832,bruvíamos,974,word,1,True,7,0.650076150894165,2,
R1832,cederá,975,word,1,False,7,0.6130568981170654,1,
R1832,sindaban,976,word,1,True,7,0.6399447917938232,2,
R1832,sufrirías,977,word,2,True,7,0.8068060874938965,1,
R1832,partiría,978,word,2,True,7,0.6750121116638184,1,
R1832,cubriré,979,word,2,True,7,0.6758439540863037,1,
R1832,fundiría,980,word,2,True,7,0.5730600357055664,1,
R1832,juraban,981,word,2,True,7,0.6219940185546875,1,
R1832,partiríamos,982,word,2,True,7,0.696530818939209,1,
R1832,lacherás,983,word,1,True,7,0.7871639728546143,2,
R1832,bruviríamos,984,word,1,True,7,0.8119552135467529,2,
R1832,faníamos,985,word,1,True,7,0.8849928379058838,2,
R1832,somerá,986,word,1,True,7,0.7720942497253418,2,
R1832,riteré,987,word,1,True,7,0.7938199043273926,2,
R1832,lailaríamos,988,word,1,True,7,1.1518850326538086,2,
R1832,maftaremos,989,word,1,True,7,0.686924934387207,2,
R1832,formará,990,word,2,True,7,0.6310768127441406,1,
R1832,sufrirán,991,word,2,True,7,0.502877950668335,1,
R1832,focarán,992,word,1,True,7,0.5460329055786133,2,
R1832,bigaré,993,word,1,True,7,0.681988000869751,2,
R1832,arderías,994,word,2,True,7,0.7868771553039551,1,
R1832,mardirían,995,word,1,True,7,1.0209732055664062,2,
R1832,rotabas,996,word,2,True,7,0.6268889904022217,1,
R1832,ceflerá,997,word,1,True,7,0.5780308246612549,2,
R1832,rimaré,998,word,2,True,7,0.6208441257476807,1,
R1832,sumarán,999,word,2,True,7,0.6411280632019043,1,
R1832,ciperé,1000,word,1,True,7,0.5842080116271973,2,
R1832,rotábamos,1001,word,2,True,7,0.639923095703125,1,
R1832,honderíamos,1002,word,1,True,7,0.6779510974884033,2,
R1832,quijará,1003,word,2,False,7,0.5632989406585693,2,
R1832,corríamos,1004,word,2,True,7,0.6550009250640869,1,
R1832,cichirías,1005,word,1,True,7,0.56107497215271,2,
R1832,galaré,1006,word,1,True,7,0.7039899826049805,2,
R1832,lailarías,1007,word,1,True,7,0.6170780658721924,2,
R1832,cenarías,1008,word,2,True,7,0.7499909400939941,1,
R1832,lacherá,1009,word,1,True,7,0.6217741966247559,2,
R1832,uniría,1010,word,2,True,7,0.6209487915039062,1,
R1832,mardiremos,1011,word,1,True,7,0.6300787925720215,2,
R1832,anreré,1012,word,1,True,7,0.546051025390625,2,
R1832,ciperían,1013,word,1,True,7,0.6059050559997559,2,
R1832,imiremos,1014,word,1,True,7,0.5819029808044434,2,
R1832,lamerás,1015,word,2,True,7,0.6481258869171143,1,
R1832,cortaba,1016,word,2,True,7,0.5308852195739746,1,
R1832,galábamos,1017,word,1,True,7,0.5999360084533691,2,
R1832,luntías,1018,word,1,True,7,0.6700470447540283,2,
R1832,cisarán,1019,word,1,True,7,0.622826099395752,2,
R1832,vultaba,1020,word,1,True,7,0.575934886932373,2,
R1832,seseríamos,1021,word,1,True,7,0.5868339538574219,2,
R1832,bigarán,1022,word,1,True,7,0.531940221786499,2,
R1832,venderán,1023,word,2,True,7,0.6630692481994629,1,
R1832,quijaríamos,1024,word,1,True,7,0.6470677852630615,2,
R1832,cubrías,1025,word,2,True,7,0.670741081237793,1,
R1832,vultaré,1026,word,1,True,7,0.5209219455718994,2,
R1832,burrábamos,1027,word,1,True,7,0.6168797016143799,2,
R1832,barrerás,1028,word,2,True,7,0.8448450565338135,1,
R1832,honderán,1029,word,1,True,7,0.589911937713623,2,
R1832,imíamos,1030,word,1,True,7,0.7198679447174072,2,
R1832,faltaban,1031,word,2,True,7,0.5609569549560547,1,
R1832,casará,1032,word,2,True,7,0.49389004707336426,1,
R1832,tujirán,1033,word,1,True,7,0.5410518646240234,2,
R1832,fanían,1034,word,1,True,7,0.9040548801422119,2,
R1832,pavabas,1035,word,1,True,7,0.5229637622833252,2,
R1832,temías,1036,word,2,True,7,0.8840029239654541,1,
R1832,morderán,1037,word,2,True,7,0.5559449195861816,1,
R1832,cisarás,1038,word,1,True,7,0.6258080005645752,2,
R1832,faltaba,1039,word,2,True,7,0.5238378047943115,1,
R1832,mordía,1040,word,2,True,7,0.521934986114502,1,
R1832,sufrirían,1041,word,2,True,7,0.5939090251922607,1,
R1832,quemaríamos,1042,word,2,True,7,0.5970191955566406,1,
R1832,narraríamos,1043,word,2,True,7,0.5280320644378662,1,
R1832,quijaba,1044,word,1,True,7,0.5030868053436279,2,
R1832,sumábamos,1045,word,2,True,7,0.5487570762634277,1,
R1832,comerá,1046,word,2,True,7,0.45392727851867676,1,
R1832,cortabas,1047,word,2,True,7,0.5019090175628662,1,
R1832,vendería,1048,word,2,True,7,0.5388319492340088,1,
R1832,zusabas,1049,word,1,True,7,0.5218968391418457,2,
R1832,pavaremos,1050,word,1,True,7,0.9391570091247559,2,
R1832,lamerá,1051,word,2,True,7,0.6239919662475586,1,
R1832,besaba,1052,word,2,True,7,0.5310430526733398,1,
R1832,quijaré,1053,word,1,True,7,0.5888760089874268,2,
R1832,zusaré,1054,word,1,True,7,0.7268979549407959,2,
R1832,cortarás,1055,word,2,True,7,0.6449809074401855,1,
R1832,sumaríamos,1056,word,2,True,7,0.5739758014678955,1,
R1832,juraré,1057,word,2,True,7,0.6468729972839355,1,
R1832,cichían,1058,word,1,True,7,0.5150618553161621,2,
R1832,chanrabas,1059,word,1,True,7,0.6158032417297363,2,
R1832,poríamos,1060,word,1,True,7,0.8159329891204834,2,
R1832,nadaban,1061,word,2,True,7,0.5160388946533203,1,
R1832,jurarán,1062,word,2,True,7,0.7934837341308594,1,
R1832,rotarían,1063,word,2,True,7,0.6039769649505615,1,
R1832,fundiremos,1064,word,2,True,7,0.6619131565093994,1,
R1832,nadarían,1065,word,2,True,7,0.5550379753112793,1,
R1832,luchábamos,1066,word,2,True,7,0.54392409324646,1,
R1832,fundían,1067,word,2,True,7,0.5329208374023438,1,
R1832,mertaban,1068,word,1,True,7,0.620948076248169,2,
R1832,partías,1069,word,2,True,7,0.4938650131225586,1,
R1832,rotaba,1070,word,2,True,7,0.5910451412200928,1,
R1832,rondarán,1071,word,2,True,7,1.064946174621582,1,
R1832,rondábamos,1072,word,2,True,7,0.5018527507781982,1,
R1832,ritería,1073,word,1,True,7,0.6268539428710938,2,
R1832,bailaríamos,1074,word,2,True,7,0.5288071632385254,1,
R1832,narrarían,1075,word,2,True,7,0.60194993019104,1,
R1832,sufrirá,1076,word,2,True,7,0.48893094062805176,1,
R1832,cedíamos,1077,word,2,True,7,0.6330013275146484,1,
R1832,unían,1078,word,2,True,7,0.4930539131164551,1,
R1832,bimaría,1079,word,1,True,7,0.5390059947967529,2,
R1832,sindaré,1080,word,1,True,7,0.571061372756958,2,
R1832,narrabas,1081,word,2,True,7,0.5288479328155518,1,
R1832,rayarás,1082,word,2,True,7,0.5819981098175049,1,
R1832,moncería,1083,word,1,True,7,0.7160120010375977,2,
R1832,partirá,1084,word,2,True,7,0.5998928546905518,1,
R1832,hondía,1085,word,1,True,7,0.9089212417602539,2,
R1832,frindía,1086,word,1,True,7,0.8146612644195557,2,
R1832,tosían,1087,word,2,True,7,0.7730510234832764,1,
R1832,sindábamos,1088,word,1,True,7,0.6390299797058105,2,
R1832,lamerían,1089,word,2,True,7,0.580014705657959,1,
R1832,bailaban,1090,word,2,True,7,0.504976749420166,1,
R1832,arderán,1091,word,2,True,7,0.5868082046508789,1,
R1832,charlará,1092,word,2,True,7,0.8470678329467773,1,
