participant,stimuli,trialNum,target_type,response,correct,block,reaction_time,trigger,
R2362,mardirá,1,word,1,True,1,1.4219748973846436,2,
R2362,quemarías,2,word,2,True,1,0.971855878829956,1,
R2362,nadaremos,3,word,2,True,1,0.7150998115539551,1,
R2362,anrerá,4,word,1,True,1,0.8029730319976807,2,
R2362,cederá,5,word,2,True,1,1.058100938796997,1,
R2362,cichirán,6,word,1,True,1,1.1080689430236816,2,
R2362,lorgaría,7,word,1,True,1,1.8627510070800781,2,
R2362,quijarías,8,word,1,True,1,1.8289670944213867,2,
R2362,frinderé,9,word,1,True,1,0.8888018131256104,2,
R2362,bailará,10,word,2,True,1,0.5829172134399414,1,
R2362,runaría,11,word,1,True,1,0.8870289325714111,2,
R2362,retarían,12,word,2,True,1,1.0748929977416992,1,
R2362,moncerá,13,word,1,True,1,0.8288249969482422,2,
R2362,poreremos,14,word,1,True,1,1.0640380382537842,2,
R2362,frindía,15,word,1,True,1,0.8850135803222656,2,
R2362,lamerá,16,word,2,True,1,1.8052091598510742,1,
R2362,eplarán,17,word,1,True,1,1.1600761413574219,2,
R2362,chanrarán,18,word,1,True,1,1.0380988121032715,2,
R2362,maftaríamos,19,word,1,True,1,0.861116886138916,2,
R2362,formaré,20,word,2,True,1,0.7309169769287109,1,
R2362,mardiremos,21,word,1,True,1,1.146791934967041,2,
R2362,sauarían,22,word,1,True,1,1.0299370288848877,2,
R2362,cetaremos,23,word,1,True,1,1.530900001525879,2,
R2362,luntían,24,word,1,True,1,0.9377830028533936,2,
R2362,uniríamos,25,word,2,True,1,0.9950559139251709,1,
R2362,cedías,26,word,1,False,1,2.1910560131073,1,
R2362,lorgaba,27,word,1,True,1,1.194800853729248,2,
R2362,mardirías,28,word,1,True,1,0.9827618598937988,2,
R2362,cortaría,29,word,2,True,1,1.3469431400299072,1,
R2362,barrerán,30,word,2,True,1,0.8571529388427734,1,
R2362,runaríamos,31,word,1,True,1,1.1370086669921875,2,
R2362,cisarás,32,word,1,True,1,1.112945318222046,2,
R2362,sumaré,33,word,2,True,1,1.1110520362854004,1,
R2362,gacharían,34,word,1,True,1,1.050765037536621,2,
R2362,anrerían,35,word,1,True,1,1.037019968032837,2,
R2362,faltabas,36,word,2,True,1,0.849066972732544,1,
R2362,cuarriría,37,word,1,True,1,0.9039618968963623,2,
R2362,lailarán,38,word,1,True,1,0.9599969387054443,2,
R2362,casaremos,39,word,2,True,1,0.7348320484161377,1,
R2362,temerías,40,word,2,True,1,0.8050210475921631,1,
R2362,porerías,41,word,1,True,1,0.7797839641571045,2,
R2362,charlarían,42,word,1,False,1,0.6708910465240479,1,
R2362,rayarás,43,word,2,True,1,1.3078112602233887,1,
R2362,morderemos,44,word,2,True,1,0.9383628368377686,1,
R2362,chanraba,45,word,1,True,1,1.2091403007507324,2,
R2362,nadarían,46,word,2,True,1,0.7143359184265137,1,
R2362,toserás,47,word,1,False,1,0.8954451084136963,1,
R2362,ceflerás,48,word,1,True,1,0.8730299472808838,2,
R2362,tupliría,49,word,1,True,1,1.1641161441802979,2,
R2362,tupliré,50,word,1,True,1,0.9652149677276611,2,
R2362,seseremos,51,word,1,True,1,0.7545068264007568,2,
R2362,subía,52,word,2,True,1,0.7393918037414551,1,
R2362,fanían,53,word,1,True,1,0.8939239978790283,2,
R2362,pavabas,54,word,1,True,1,0.9118249416351318,2,
R2362,rayaríamos,55,word,2,True,1,1.0529582500457764,1,
R2362,bailaría,56,word,2,True,1,1.2432568073272705,1,
R2362,coserás,57,word,2,True,1,1.901237964630127,1,
R2362,casarán,58,word,2,True,1,0.6483719348907471,1,
R2362,cichirías,59,word,1,True,1,0.7673690319061279,2,
R2362,partirán,60,word,1,False,1,1.3880462646484375,1,
R2362,mertará,61,word,1,True,1,1.2873458862304688,2,
R2362,tosíamos,62,word,2,True,1,1.1617989540100098,1,
R2362,anríamos,63,word,1,True,1,1.0752308368682861,2,
R2362,morderíamos,64,word,2,True,1,1.6581149101257324,1,
R2362,subirías,65,word,2,True,1,1.3890328407287598,1,
R2362,bruviríamos,66,word,1,True,1,2.515989065170288,2,
R2362,comeríamos,67,word,2,True,1,1.3790950775146484,1,
R2362,bimaremos,68,word,1,True,1,1.0590667724609375,2,
R2362,coseremos,69,word,2,True,1,2.4109599590301514,1,
R2362,rimarás,70,word,1,False,1,1.4060389995574951,1,
R2362,besaremos,71,word,1,False,1,2.1830289363861084,1,
R2362,metería,72,word,1,False,1,5.032098054885864,1,
R2362,arderá,73,word,2,True,1,1.2809531688690186,1,
R2362,anría,74,word,1,True,1,1.125072956085205,2,
R2362,cedíamos,75,word,2,True,1,0.9691009521484375,1,
R2362,temerán,76,word,2,True,1,0.6659581661224365,1,
R2362,sumaban,77,word,2,True,1,0.885983943939209,1,
R2362,pactarían,78,word,1,False,1,5.632132053375244,1,
R2362,meterá,79,word,2,True,1,0.7308361530303955,1,
R2362,metías,80,word,2,True,1,0.6840519905090332,1,
R2362,toseríamos,81,word,2,True,1,1.0892019271850586,1,
R2362,bigaría,82,word,1,True,1,0.9047410488128662,2,
R2362,focaba,83,word,1,True,1,2.275017023086548,2,
R2362,galaba,84,word,1,True,1,0.9781172275543213,2,
R2362,correrá,85,word,2,True,1,0.6290171146392822,1,
R2362,quijaremos,86,word,1,True,1,1.8260672092437744,2,
R2362,galarás,87,word,1,True,1,0.8400139808654785,2,
R2362,temerás,88,word,2,True,1,0.6789731979370117,1,
R2362,galarías,89,word,1,True,1,0.9890580177307129,2,
R2362,lachía,90,word,1,True,1,1.05210280418396,2,
R2362,bimarán,91,word,1,True,1,0.8781969547271729,2,
R2362,cortábamos,92,word,2,True,1,1.1430740356445312,1,
R2362,luntíamos,93,word,1,True,1,0.8918211460113525,2,
R2362,galábamos,94,word,1,True,1,1.4389941692352295,2,
R2362,casaría,95,word,2,True,1,0.7129440307617188,1,
R2362,subiremos,96,word,2,True,1,0.9320259094238281,1,
R2362,formabas,97,word,2,True,1,0.5349318981170654,1,
R2362,somíamos,98,word,1,True,1,1.043895959854126,2,
R2362,barreremos,99,word,2,True,1,0.8190178871154785,1,
R2362,sesíamos,100,word,1,True,1,0.8532390594482422,2,
R2362,cenaríamos,101,word,1,False,1,1.838061809539795,1,
R2362,rimaríamos,102,word,1,False,1,0.9879109859466553,1,
R2362,luchaban,103,word,2,True,1,0.8338840007781982,1,
R2362,casarías,104,word,2,True,1,0.6301262378692627,1,
R2362,barría,105,word,2,True,1,0.5778501033782959,1,
R2362,lailarás,106,word,1,True,1,1.034053087234497,2,
R2362,quijaban,107,word,1,True,1,1.081981897354126,2,
R2362,rimaban,108,word,1,False,1,1.6769638061523438,1,
R2362,faneríamos,109,word,1,True,1,0.8751187324523926,2,
R2362,moncerías,110,word,1,True,1,0.9570329189300537,2,
R2362,comería,111,word,2,True,1,0.7349498271942139,1,
R2362,focaremos,112,word,1,True,1,1.4830288887023926,2,
R2362,besaríamos,113,word,2,True,1,0.9130611419677734,1,
R2362,eplaba,114,word,1,True,1,0.8658909797668457,2,
R2362,focarán,115,word,1,True,1,0.8503499031066895,2,
R2362,lailábamos,116,word,1,True,1,0.911067008972168,2,
R2362,hondía,117,word,1,True,1,2.0058600902557373,2,
R2362,narrarás,118,word,2,True,1,1.6520049571990967,1,
R2362,retábamos,119,word,2,True,1,0.7708339691162109,1,
R2362,gruñirás,120,word,2,True,1,1.1850380897521973,1,
R2362,ritía,121,word,1,True,1,0.8759868144989014,2,
R2362,bailaré,122,word,2,True,1,0.6748960018157959,1,
R2362,cetían,123,word,1,True,1,1.4631941318511963,2,
R2362,lorgarás,124,word,1,True,1,1.2918720245361328,2,
R2362,cubrirán,125,word,2,True,1,1.1633789539337158,1,
R2362,cosía,126,word,2,True,1,0.8908801078796387,1,
R2362,eplábamos,127,word,1,True,1,1.3470966815948486,2,
R2362,eplaremos,128,word,1,True,1,1.3691051006317139,2,
R2362,nadarías,129,word,2,True,1,1.3369879722595215,1,
R2362,unías,130,word,2,True,1,0.686345100402832,1,
R2362,lacherán,131,word,1,True,1,0.9755570888519287,2,
R2362,gruñiríamos,132,word,2,True,1,0.8919680118560791,1,
R2362,cichirá,133,word,1,True,1,0.8170130252838135,2,
R2362,pavaríamos,134,word,1,True,1,1.033966064453125,2,
R2362,rayaría,135,word,2,True,1,2.151005983352661,1,
R2362,formaremos,136,word,2,True,1,0.6719770431518555,1,
R2362,cosían,137,word,2,True,1,0.7508819103240967,1,
R2362,rondaría,138,word,1,False,1,2.067046880722046,1,
R2362,besaba,139,word,2,True,1,0.6481750011444092,1,
R2362,luntirá,140,word,1,True,1,0.830967903137207,2,
R2362,burrarás,141,word,1,True,1,1.5280609130859375,2,
R2362,prenderían,142,word,2,True,1,1.5918760299682617,1,
R2362,anrerías,143,word,1,True,1,1.0309019088745117,2,
R2362,runaba,144,word,1,True,1,0.6960992813110352,2,
R2362,tosían,145,word,2,True,1,0.9470160007476807,1,
R2362,lorgabas,146,word,1,True,1,1.074950933456421,2,
R2362,pavaban,147,word,1,True,1,1.131964921951294,2,
R2362,sufriremos,148,word,2,True,1,0.9261231422424316,1,
R2362,maftábamos,149,word,1,True,1,1.2629361152648926,2,
R2362,burraríamos,150,word,1,True,1,1.2670881748199463,2,
R2362,meteré,151,word,2,True,1,1.0034549236297607,1,
R2362,fundiremos,152,word,2,True,1,1.1629612445831299,1,
R2362,focarían,153,word,1,True,1,1.0779988765716553,2,
R2362,mardirán,154,word,1,True,1,1.1229891777038574,2,
R2362,cosería,155,word,2,True,1,0.6808621883392334,1,
R2362,zusaré,156,word,1,True,1,0.6947250366210938,2,
R2362,burraban,157,word,1,True,2,0.8586082458496094,2,
R2362,lailaríamos,158,word,1,True,2,0.8818728923797607,2,
R2362,cubriríamos,159,word,2,True,2,0.8219373226165771,1,
R2362,vendía,160,word,2,True,2,0.6537728309631348,1,
R2362,cubriremos,161,word,2,True,2,0.7430577278137207,1,
R2362,mardirás,162,word,1,True,2,0.8490810394287109,2,
R2362,narrarían,163,word,2,True,2,1.4539520740509033,1,
R2362,sauarías,164,word,1,True,2,0.9030368328094482,2,
R2362,obrará,165,word,1,False,2,2.419950008392334,1,
R2362,nadaré,166,word,2,True,2,1.7689878940582275,1,
R2362,vultaremos,167,word,1,True,2,1.0650098323822021,2,
R2362,bigabas,168,word,1,True,2,0.8589608669281006,2,
R2362,subiríamos,169,word,2,True,2,1.4228949546813965,1,
R2362,casaban,170,word,2,True,2,0.6340279579162598,1,
R2362,somía,171,word,1,True,2,1.4189612865447998,2,
R2362,mertabas,172,word,1,True,2,0.9229512214660645,2,
R2362,tuplirás,173,word,1,True,2,0.7837939262390137,2,
R2362,pavará,174,word,1,True,2,0.8990418910980225,2,
R2362,mertaba,175,word,1,True,2,0.98809814453125,2,
R2362,ciperemos,176,word,1,True,2,0.7829527854919434,2,
R2362,venderé,177,word,2,True,2,0.6130459308624268,1,
R2362,ciperíamos,178,word,1,True,2,0.8038980960845947,2,
R2362,vultarás,179,word,1,True,2,0.9339461326599121,2,
R2362,mardiré,180,word,1,True,2,0.9051141738891602,2,
R2362,quemaba,181,word,2,True,2,0.7760167121887207,1,
R2362,prendía,182,word,2,True,2,0.7060427665710449,1,
R2362,fundiríamos,183,word,1,False,2,1.4421069622039795,1,
R2362,cenará,184,word,2,True,2,1.1049878597259521,1,
R2362,cuarriríamos,185,word,1,True,2,3.3699541091918945,2,
R2362,lacheré,186,word,1,True,2,0.8160901069641113,2,
R2362,fundirás,187,word,1,False,2,1.036940097808838,1,
R2362,partías,188,word,1,False,2,3.4760262966156006,1,
R2362,sufriríamos,189,word,2,True,2,1.3350129127502441,1,
R2362,ciperían,190,word,1,True,2,0.9689631462097168,2,
R2362,mordíamos,191,word,2,True,2,0.8209211826324463,1,
R2362,comía,192,word,2,True,2,0.8158950805664062,1,
R2362,burraré,193,word,1,True,2,0.9638631343841553,2,
R2362,mertarían,194,word,1,True,2,1.586287021636963,2,
R2362,cederemos,195,word,2,True,2,1.1009821891784668,1,
R2362,ciperá,196,word,1,True,2,0.7469120025634766,2,
R2362,bigarías,197,word,1,True,2,0.813107967376709,2,
R2362,sumaba,198,word,2,True,2,0.8010339736938477,1,
R2362,tujía,199,word,1,True,2,0.9771111011505127,2,
R2362,sufrirá,200,word,2,True,2,0.6689252853393555,1,
R2362,subirán,201,word,2,True,2,1.2119059562683105,1,
R2362,eplaré,202,word,1,True,2,0.8279831409454346,2,
R2362,sauaríamos,203,word,1,True,2,1.3839759826660156,2,
R2362,cisaban,204,word,1,True,2,0.8008668422698975,2,
R2362,retaba,205,word,2,True,2,0.6518909931182861,1,
R2362,corría,206,word,2,True,2,0.6870090961456299,1,
R2362,cuarrías,207,word,1,True,2,0.683074951171875,2,
R2362,rondábamos,208,word,2,True,2,0.709165096282959,1,
R2362,fanerías,209,word,1,True,2,0.7352650165557861,2,
R2362,eplarían,210,word,1,True,2,0.7988860607147217,2,
R2362,narraré,211,word,2,True,2,1.1617908477783203,1,
R2362,toserá,212,word,2,True,2,1.8708999156951904,1,
R2362,charlabas,213,word,2,True,2,0.9870400428771973,1,
R2362,charlaríamos,214,word,2,True,2,1.871169090270996,1,
R2362,cumpliré,215,word,2,True,2,0.6720590591430664,1,
R2362,cisaba,216,word,1,True,2,0.7699778079986572,2,
R2362,cumplíamos,217,word,2,True,2,2.0488948822021484,1,
R2362,bruviré,218,word,1,True,2,0.7668421268463135,2,
R2362,lorgaban,219,word,1,True,2,1.5180418491363525,2,
R2362,pactaré,220,word,1,False,2,0.8689470291137695,1,
R2362,faníamos,221,word,1,True,2,0.9008820056915283,2,
R2362,porerán,222,word,1,True,2,0.7750027179718018,2,
R2362,mardiría,223,word,1,True,2,1.429029941558838,2,
R2362,burrarían,224,word,1,True,2,1.15093994140625,2,
R2362,maftaría,225,word,1,True,2,1.2099041938781738,2,
R2362,runaban,226,word,1,True,2,1.878002405166626,2,
R2362,charlaré,227,word,2,True,2,0.9969668388366699,1,
R2362,tuplirías,228,word,1,True,2,1.159998893737793,2,
R2362,meterán,229,word,2,True,2,1.6280817985534668,1,
R2362,imirían,230,word,1,True,2,1.2069988250732422,2,
R2362,rotarías,231,word,2,True,2,1.1540400981903076,1,
R2362,gachabas,232,word,1,True,2,1.7928080558776855,2,
R2362,prenderíamos,233,word,2,True,2,0.9499499797821045,1,
R2362,tupliremos,234,word,1,True,2,0.7643320560455322,2,
R2362,seseríamos,235,word,1,True,2,0.9299089908599854,2,
R2362,fundirá,236,word,2,True,2,2.246889114379883,1,
R2362,cubría,237,word,2,True,2,0.7839150428771973,1,
R2362,zusabas,238,word,1,True,2,0.8500888347625732,2,
R2362,faltarías,239,word,2,True,2,0.7790489196777344,1,
R2362,sindábamos,240,word,1,True,2,2.2059481143951416,2,
R2362,cetería,241,word,1,True,2,1.525956153869629,2,
R2362,maftaré,242,word,1,True,2,0.8354160785675049,2,
R2362,zusarías,243,word,1,True,2,0.5560572147369385,2,
R2362,cuarriremos,244,word,1,True,2,0.852863073348999,2,
R2362,casaré,245,word,2,True,2,0.7277929782867432,1,
R2362,faltaríamos,246,word,2,True,2,0.9408562183380127,1,
R2362,gacharía,247,word,1,True,2,0.950002908706665,2,
R2362,charlarías,248,word,2,True,2,0.8849761486053467,1,
R2362,comeremos,249,word,1,False,2,1.506019115447998,1,
R2362,cuarrirás,250,word,1,True,2,1.1808910369873047,2,
R2362,chanrarían,251,word,1,True,2,1.712763786315918,2,
R2362,juraré,252,word,2,True,2,0.773993968963623,1,
R2362,cipías,253,word,1,True,2,0.7527368068695068,2,
R2362,rotaban,254,word,2,True,2,0.7161118984222412,1,
R2362,cortaba,255,word,2,True,2,0.9209420680999756,1,
R2362,charlará,256,word,2,True,2,0.95908522605896,1,
R2362,juraríamos,257,word,2,True,2,1.8461508750915527,1,
R2362,nadará,258,word,2,True,2,0.7489490509033203,1,
R2362,porería,259,word,1,True,2,1.12398099899292,2,
R2362,cumpliríamos,260,word,2,True,2,1.000302791595459,1,
R2362,hondías,261,word,1,True,2,1.7249510288238525,2,
R2362,barrían,262,word,2,True,2,1.2560381889343262,1,
R2362,bigaré,263,word,1,True,2,0.7927753925323486,2,
R2362,ceflerán,264,word,1,True,2,0.8089702129364014,2,
R2362,galaremos,265,word,1,True,2,1.0651211738586426,2,
R2362,vultarías,266,word,1,True,2,2.549793004989624,2,
R2362,imiríamos,267,word,1,True,2,1.4169189929962158,2,
R2362,quemará,268,word,2,True,2,2.1869709491729736,1,
R2362,ritería,269,word,1,True,2,0.8520612716674805,2,
R2362,metían,270,word,2,True,2,0.6969809532165527,1,
R2362,rimaré,271,word,1,False,2,0.8299319744110107,1,
R2362,fundías,272,word,2,True,2,0.6011738777160645,1,
R2362,temerá,273,word,2,True,2,0.5619900226593018,1,
R2362,nadarán,274,word,2,True,2,0.5319828987121582,1,
R2362,cenaremos,275,word,2,True,2,0.5810868740081787,1,
R2362,bigarían,276,word,1,True,2,0.712975025177002,2,
R2362,lorgarías,277,word,1,True,2,1.1799569129943848,2,
R2362,correrán,278,word,2,True,2,0.6829807758331299,1,
R2362,focabas,279,word,2,False,2,0.5819091796875,2,
R2362,cefleremos,280,word,1,True,2,0.7679028511047363,2,
R2362,correré,281,word,2,True,2,0.6178817749023438,1,
R2362,rimabas,282,word,1,False,2,0.7039909362792969,1,
R2362,casarás,283,word,2,True,2,2.259021043777466,1,
R2362,cubrirás,284,word,2,True,2,0.964879035949707,1,
R2362,cubrías,285,word,2,True,2,0.66892409324646,1,
R2362,moncías,286,word,1,True,2,0.8371200561523438,2,
R2362,runarán,287,word,1,True,2,2.073941946029663,2,
R2362,maftará,288,word,1,True,2,0.6798980236053467,2,
R2362,seserán,289,word,1,True,2,1.0200703144073486,2,
R2362,zusábamos,290,word,1,True,2,0.8550069332122803,2,
R2362,retarías,291,word,2,True,2,0.776115894317627,1,
R2362,gruñiré,292,word,2,True,2,0.7909293174743652,1,
R2362,cenaba,293,word,2,True,2,0.6197469234466553,1,
R2362,maftarán,294,word,1,True,2,0.7890996932983398,2,
R2362,cichirían,295,word,1,True,2,1.461026906967163,2,
R2362,gruñirán,296,word,2,True,2,0.8040049076080322,1,
R2362,mertaríamos,297,word,1,True,2,1.3261950016021729,2,
R2362,sufrías,298,word,2,True,2,0.7689049243927002,1,
R2362,riterás,299,word,1,True,2,3.314056158065796,2,
R2362,sauarás,300,word,1,True,2,0.6120738983154297,2,
R2362,temíamos,301,word,2,True,2,0.6579720973968506,1,
R2362,quemarán,302,word,2,True,2,0.5606520175933838,1,
R2362,cetaría,303,word,1,True,2,1.3909409046173096,2,
R2362,quemabas,304,word,1,False,2,0.725783109664917,1,
R2362,subirían,305,word,2,True,2,2.1338939666748047,1,
R2362,imía,306,word,1,True,2,0.7351517677307129,2,
R2362,gruñían,307,word,2,True,2,0.5819051265716553,1,
R2362,quijarás,308,word,1,True,2,2.2240869998931885,2,
R2362,ceflías,309,word,1,True,2,0.712846040725708,2,
R2362,cumplirás,310,word,2,True,2,0.7180507183074951,1,
R2362,riterán,311,word,1,True,2,0.9085400104522705,2,
R2362,lailarían,312,word,1,True,2,0.8321211338043213,2,
R2362,cumplirías,313,word,2,True,3,0.6689248085021973,1,
R2362,ceterías,314,word,1,True,3,0.6741390228271484,2,
R2362,vultabas,315,word,1,True,3,1.2439899444580078,2,
R2362,tujiríamos,316,word,1,True,3,0.830897331237793,2,
R2362,fanerían,317,word,1,True,3,0.6899740695953369,2,
R2362,fundían,318,word,2,True,3,0.6420009136199951,1,
R2362,ciperé,319,word,1,True,3,0.676002025604248,2,
R2362,lacheríamos,320,word,1,True,3,0.8600509166717529,2,
R2362,sumaremos,321,word,2,True,3,0.8950216770172119,1,
R2362,bimarían,322,word,1,True,3,0.7449030876159668,2,
R2362,cubríamos,323,word,2,True,3,0.6819119453430176,1,
R2362,cederán,324,word,2,True,3,0.8901638984680176,1,
R2362,rondaremos,325,word,2,True,3,1.713853120803833,1,
R2362,luntías,326,word,1,True,3,0.9446921348571777,2,
R2362,zusará,327,word,1,True,3,0.6348938941955566,2,
R2362,formarán,328,word,2,True,3,1.0909969806671143,1,
R2362,comerá,329,word,2,True,3,0.9191067218780518,1,
R2362,morderán,330,word,2,True,3,0.7638280391693115,1,
R2362,barrías,331,word,2,True,3,1.3448941707611084,1,
R2362,tujíamos,332,word,1,True,3,2.3930649757385254,2,
R2362,unía,333,word,2,True,3,1.4180679321289062,1,
R2362,uníamos,334,word,2,True,3,0.7258789539337158,1,
R2362,pactarán,335,word,1,False,3,2.8000879287719727,1,
R2362,eplarás,336,word,1,True,3,0.7378802299499512,2,
R2362,ceflerías,337,word,1,True,3,0.6458208560943604,2,
R2362,sindaría,338,word,1,True,3,0.6919920444488525,2,
R2362,lucharía,339,word,2,True,3,1.3679370880126953,1,
R2362,sauaba,340,word,1,True,3,1.5819997787475586,2,
R2362,cortaban,341,word,2,True,3,0.7011480331420898,1,
R2362,focarás,342,word,1,True,3,1.0439879894256592,2,
R2362,focaban,343,word,1,True,3,1.1040260791778564,2,
R2362,frinderían,344,word,1,True,3,2.0000240802764893,2,
R2362,comían,345,word,2,True,3,0.9549109935760498,1,
R2362,bailaríamos,346,word,2,True,3,1.6648449897766113,1,
R2362,subiría,347,word,2,True,3,2.8519418239593506,1,
R2362,coserías,348,word,1,False,3,1.2707500457763672,1,
R2362,gachaban,349,word,1,True,3,1.1348772048950195,2,
R2362,rondarían,350,word,1,False,3,1.1270110607147217,1,
R2362,frinderías,351,word,1,True,3,0.7800140380859375,2,
R2362,cetaríamos,352,word,1,True,3,2.6429998874664307,2,
R2362,rimaría,353,word,1,False,3,0.606956958770752,1,
R2362,frindería,354,word,1,True,3,0.5600881576538086,2,
R2362,chanrabas,355,word,1,True,3,1.0230278968811035,2,
R2362,cetabas,356,word,1,True,3,12.579259872436523,2,
R2362,cubrirá,357,word,2,True,3,0.6369547843933105,1,
R2362,prenderías,358,word,2,True,3,1.022935152053833,1,
R2362,partiría,359,word,2,True,3,2.0259571075439453,1,
R2362,coserá,360,word,1,False,3,2.712827205657959,1,
R2362,narraban,361,word,2,True,3,0.729935884475708,1,
R2362,honderíamos,362,word,1,True,3,0.8048670291900635,2,
R2362,sindaremos,363,word,1,True,3,0.7938449382781982,2,
R2362,partían,364,word,2,True,3,1.7700779438018799,1,
R2362,nadarás,365,word,2,True,3,0.5781538486480713,1,
R2362,tuplías,366,word,1,True,3,0.8178596496582031,2,
R2362,honderían,367,word,1,True,3,1.3909649848937988,2,
R2362,lachería,368,word,1,True,3,0.604943037033081,2,
R2362,fanerán,369,word,1,True,3,0.5926949977874756,2,
R2362,jurarás,370,word,2,True,3,0.6110379695892334,1,
R2362,quijará,371,word,1,True,3,0.8992741107940674,2,
R2362,porerás,372,word,1,True,3,0.8958749771118164,2,
R2362,somerían,373,word,1,True,3,0.8010311126708984,2,
R2362,besarían,374,word,2,True,3,0.6079349517822266,1,
R2362,cuarrirá,375,word,1,True,3,0.6769809722900391,2,
R2362,quemaré,376,word,2,True,3,0.6769390106201172,1,
R2362,tujiremos,377,word,1,True,3,0.8589560985565186,2,
R2362,lailabas,378,word,1,True,3,0.6609561443328857,2,
R2362,moncíamos,379,word,1,True,3,0.6830151081085205,2,
R2362,vultaría,380,word,1,True,3,2.025020122528076,2,
R2362,pactaba,381,word,1,False,3,1.4670767784118652,1,
R2362,temeríamos,382,word,2,True,3,1.7270028591156006,1,
R2362,cisarán,383,word,1,True,3,0.6539211273193359,2,
R2362,venderían,384,word,2,True,3,0.762822151184082,1,
R2362,cubrirías,385,word,2,True,3,0.6040990352630615,1,
R2362,focaríamos,386,word,1,True,3,0.734915018081665,2,
R2362,narraba,387,word,2,True,3,0.6238813400268555,1,
R2362,rondaríamos,388,word,2,True,3,0.8922109603881836,1,
R2362,chanraban,389,word,1,True,3,0.621985673904419,2,
R2362,cetaba,390,word,2,False,3,0.84694504737854,2,
R2362,subían,391,word,2,True,3,0.6659600734710693,1,
R2362,honderás,392,word,1,True,3,0.7990882396697998,2,
R2362,fundirán,393,word,2,True,3,1.3769090175628662,1,
R2362,bruvirían,394,word,1,True,3,0.9281258583068848,2,
R2362,monceríamos,395,word,1,True,3,0.9258759021759033,2,
R2362,fundiré,396,word,2,True,3,1.5490350723266602,1,
R2362,vultará,397,word,1,True,3,1.0470588207244873,2,
R2362,partía,398,word,2,True,3,1.387868881225586,1,
R2362,ceterían,399,word,1,True,3,0.9598000049591064,2,
R2362,rimarán,400,word,1,False,3,0.7989799976348877,1,
R2362,charlarán,401,word,2,True,3,1.1160509586334229,1,
R2362,temías,402,word,2,True,3,0.574941873550415,1,
R2362,partirás,403,word,2,True,3,1.2537789344787598,1,
R2362,ceterá,404,word,1,True,3,2.1478331089019775,2,
R2362,besaré,405,word,2,True,3,0.6718730926513672,1,
R2362,riteríamos,406,word,1,True,3,0.8039488792419434,2,
R2362,gacharás,407,word,1,True,3,0.9308888912200928,2,
R2362,seserías,408,word,1,True,3,1.35481595993042,2,
R2362,fundiría,409,word,1,False,3,2.955972194671631,1,
R2362,somerá,410,word,1,True,3,0.7724800109863281,2,
R2362,bimarías,411,word,1,True,3,0.5599021911621094,2,
R2362,lamerán,412,word,1,False,3,0.46281981468200684,1,
R2362,coserían,413,word,2,True,3,1.1081037521362305,1,
R2362,meteríamos,414,word,2,True,3,1.0519089698791504,1,
R2362,moncerán,415,word,1,True,3,0.9759039878845215,2,
R2362,cumplías,416,word,2,True,3,1.0338997840881348,1,
R2362,lailaría,417,word,1,True,3,0.7119700908660889,2,
R2362,sindaban,418,word,1,True,3,0.7376682758331299,2,
R2362,burraremos,419,word,1,True,3,1.250082015991211,2,
R2362,metía,420,word,2,True,3,0.7640459537506104,1,
R2362,mertarán,421,word,1,True,3,1.2267639636993408,2,
R2362,morderé,422,word,2,True,3,0.7047369480133057,1,
R2362,bailarías,423,word,2,True,3,0.6829712390899658,1,
R2362,correrás,424,word,2,True,3,0.6661760807037354,1,
R2362,bimabas,425,word,1,True,3,0.7022860050201416,2,
R2362,gachábamos,426,word,1,True,3,0.8589766025543213,2,
R2362,rimaba,427,word,1,False,3,0.6397750377655029,1,
R2362,moncía,428,word,1,True,3,0.6284887790679932,2,
R2362,luntirías,429,word,1,True,3,0.6602811813354492,2,
R2362,quemaríamos,430,word,2,True,3,0.8083100318908691,1,
R2362,rotarán,431,word,2,True,3,1.2643251419067383,1,
R2362,pavarán,432,word,1,True,3,1.0083489418029785,2,
R2362,maftarían,433,word,1,True,3,0.8432183265686035,2,
R2362,bigaban,434,word,1,True,3,0.631079912185669,2,
R2362,rayarían,435,word,2,True,3,1.063316822052002,1,
R2362,sufrían,436,word,2,True,3,0.8704431056976318,1,
R2362,luchaba,437,word,2,True,3,0.6564421653747559,1,
R2362,sesías,438,word,1,True,3,0.7442429065704346,2,
R2362,cichía,439,word,1,True,3,0.9092962741851807,2,
R2362,rondaré,440,word,1,False,3,1.5171940326690674,1,
R2362,poreríamos,441,word,1,True,3,1.144228219985962,2,
R2362,pactábamos,442,word,2,True,3,1.1163079738616943,1,
R2362,focábamos,443,word,1,True,3,1.0137767791748047,2,
R2362,cipían,444,word,1,True,3,0.5547890663146973,2,
R2362,temían,445,word,2,True,3,0.8549559116363525,1,
R2362,nadaban,446,word,2,True,3,0.623013973236084,1,
R2362,cichirás,447,word,1,True,3,0.7227907180786133,2,
R2362,frindían,448,word,1,True,3,0.6490509510040283,2,
R2362,cumpliría,449,word,2,True,3,0.8059687614440918,1,
R2362,bigaba,450,word,1,True,3,0.7758650779724121,2,
R2362,partirá,451,word,2,True,3,1.604970932006836,1,
R2362,bimaban,452,word,1,True,3,0.8000357151031494,2,
R2362,faltaría,453,word,2,True,3,1.0881657600402832,1,
R2362,mertábamos,454,word,1,True,3,1.216336965560913,2,
R2362,cortaremos,455,word,2,True,3,0.7792010307312012,1,
R2362,lamería,456,word,1,False,3,2.4009218215942383,1,
R2362,moncerás,457,word,1,True,3,0.7199640274047852,2,
R2362,rayaba,458,word,2,True,3,1.0319809913635254,1,
R2362,imiría,459,word,1,True,3,2.295025110244751,2,
R2362,arderás,460,word,2,True,3,0.9678630828857422,1,
R2362,sumarán,461,word,1,False,3,0.39687013626098633,1,
R2362,ciperás,462,word,1,True,3,1.1089558601379395,2,
R2362,morderá,463,word,2,True,3,2.4018430709838867,1,
R2362,partiríamos,464,word,2,True,3,1.0431270599365234,1,
R2362,formábamos,465,word,2,True,3,1.2742278575897217,1,
R2362,ceteríamos,466,word,1,True,3,0.9570670127868652,2,
R2362,subiré,467,word,2,True,3,0.6709532737731934,1,
R2362,maftaban,468,word,1,True,3,0.7177588939666748,2,
R2362,mordía,469,word,2,True,4,1.2078287601470947,1,
R2362,frinderán,470,word,1,True,4,0.719987154006958,2,
R2362,retaré,471,word,2,True,4,0.6140589714050293,1,
R2362,lailaba,472,word,1,True,4,0.672011137008667,2,
R2362,barrerás,473,word,2,True,4,1.0723521709442139,1,
R2362,rotaré,474,word,2,True,4,1.815962791442871,1,
R2362,cetaré,475,word,1,True,4,1.3399059772491455,2,
R2362,vultaré,476,word,1,True,4,0.6629548072814941,2,
R2362,cetaban,477,word,2,False,4,0.8581118583679199,2,
R2362,somerías,478,word,1,True,4,1.0369899272918701,2,
R2362,quemarían,479,word,2,True,4,0.8587887287139893,1,
R2362,mertarías,480,word,1,True,4,1.20212721824646,2,
R2362,cuarrirán,481,word,1,True,4,0.9149210453033447,2,
R2362,cenaría,482,word,2,True,4,1.290937900543213,1,
R2362,ceteremos,483,word,1,True,4,2.01094388961792,2,
R2362,someríamos,484,word,1,True,4,1.2648961544036865,2,
R2362,runábamos,485,word,1,True,4,1.1859560012817383,2,
R2362,unirá,486,word,2,True,4,0.7269978523254395,1,
R2362,ceflían,487,word,1,True,4,0.6889488697052002,2,
R2362,chanraré,488,word,1,True,4,0.7660222053527832,2,
R2362,tujiría,489,word,1,True,4,2.562896966934204,2,
R2362,sufriré,490,word,2,True,4,0.6179711818695068,1,
R2362,mardía,491,word,1,True,4,0.9539949893951416,2,
R2362,mardirían,492,word,1,True,4,0.8328559398651123,2,
R2362,sauabas,493,word,1,True,4,1.0459699630737305,2,
R2362,sauaría,494,word,1,True,4,0.781872034072876,2,
R2362,lorgarán,495,word,1,True,4,1.3238887786865234,2,
R2362,maftarías,496,word,1,True,4,0.9830169677734375,2,
R2362,cubriré,497,word,2,True,4,0.8539950847625732,1,
R2362,honderá,498,word,1,True,4,1.4350497722625732,2,
R2362,arderán,499,word,2,True,4,1.1219761371612549,1,
R2362,galaré,500,word,1,True,4,1.2980778217315674,2,
R2362,lachían,501,word,1,True,4,0.986968994140625,2,
R2362,cichías,502,word,1,True,4,3.931191921234131,2,
R2362,cubrirían,503,word,2,True,4,0.656867265701294,1,
R2362,gruñirá,504,word,2,True,4,1.0898678302764893,1,
R2362,tuplíamos,505,word,1,True,4,0.7630929946899414,2,
R2362,lorgaré,506,word,2,False,4,0.6100690364837646,2,
R2362,gruñirían,507,word,2,True,4,0.6527388095855713,1,
R2362,faltaremos,508,word,2,True,4,0.7670328617095947,1,
R2362,ceterán,509,word,1,True,4,0.7458300590515137,2,
R2362,vultaríamos,510,word,1,True,4,0.7318539619445801,2,
R2362,ceflíamos,511,word,1,True,4,0.6879978179931641,2,
R2362,sumaríamos,512,word,1,False,4,0.8637611865997314,1,
R2362,lameremos,513,word,1,False,4,0.6969759464263916,1,
R2362,cisarías,514,word,1,True,4,0.9040811061859131,2,
R2362,burraría,515,word,1,True,4,0.8799397945404053,2,
R2362,sufría,516,word,2,True,4,0.5719690322875977,1,
R2362,sumarás,517,word,2,True,4,0.7091598510742188,1,
R2362,someremos,518,word,1,True,4,1.3589801788330078,2,
R2362,nadaríamos,519,word,2,True,4,1.1088249683380127,1,
R2362,gacharán,520,word,1,True,4,1.2292909622192383,2,
R2362,eplaban,521,word,1,True,4,0.9189252853393555,2,
R2362,morderías,522,word,2,True,4,1.6050512790679932,1,
R2362,cosías,523,word,1,False,4,1.4768061637878418,1,
R2362,sindarás,524,word,1,True,4,1.0479259490966797,2,
R2362,retaremos,525,word,2,True,4,0.7580418586730957,1,
R2362,bimábamos,526,word,1,True,4,1.9220030307769775,2,
R2362,tujían,527,word,1,True,4,0.7810401916503906,2,
R2362,riterá,528,word,1,True,4,0.7248320579528809,2,
R2362,coseríamos,529,word,2,True,4,1.6209001541137695,1,
R2362,cosíamos,530,word,2,True,4,1.0170340538024902,1,
R2362,lacherá,531,word,1,True,4,0.8369150161743164,2,
R2362,hondíamos,532,word,1,True,4,1.6480193138122559,2,
R2362,temeré,533,word,2,True,4,1.2561819553375244,1,
R2362,morderían,534,word,2,True,4,1.3043317794799805,1,
R2362,faltarás,535,word,2,True,4,1.381836175918579,1,
R2362,anrías,536,word,1,True,4,0.9850640296936035,2,
R2362,sufrirías,537,word,2,True,4,1.145887851715088,1,
R2362,lamían,538,word,1,False,4,4.628077030181885,1,
R2362,cetarás,539,word,1,True,4,0.8719930648803711,2,
R2362,meterían,540,word,2,True,4,0.9910011291503906,1,
R2362,frinderíamos,541,word,1,True,4,1.107928991317749,2,
R2362,frinderás,542,word,1,True,4,0.8869457244873047,2,
R2362,cortarán,543,word,2,True,4,0.6869878768920898,1,
R2362,porerían,544,word,1,True,4,0.8048648834228516,2,
R2362,faltaré,545,word,2,True,4,0.7051351070404053,1,
R2362,charlaban,546,word,2,True,4,0.6678979396820068,1,
R2362,eplarías,547,word,1,True,4,0.7739331722259521,2,
R2362,cetábamos,548,word,1,True,4,1.9128341674804688,2,
R2362,anrerán,549,word,1,True,4,0.8712151050567627,2,
R2362,bruvía,550,word,1,True,4,0.8109610080718994,2,
R2362,comerías,551,word,2,True,4,0.7168588638305664,1,
R2362,riterías,552,word,1,True,4,0.876072883605957,2,
R2362,quemaban,553,word,2,True,4,1.1035659313201904,1,
R2362,rotarían,554,word,2,True,4,0.948004961013794,1,
R2362,cetías,555,word,1,True,4,1.025968074798584,2,
R2362,rayábamos,556,word,2,True,4,1.6488971710205078,1,
R2362,mardías,557,word,1,True,4,0.8470258712768555,2,
R2362,luntirán,558,word,1,True,4,1.7651491165161133,2,
R2362,cortarían,559,word,2,True,4,0.6218979358673096,1,
R2362,retarás,560,word,2,True,4,0.6918909549713135,1,
R2362,gruñirías,561,word,2,True,4,0.6590900421142578,1,
R2362,lamerás,562,word,1,False,4,1.3089990615844727,1,
R2362,sesían,563,word,1,True,4,0.6898272037506104,2,
R2362,maftaba,564,word,1,True,4,0.9448676109313965,2,
R2362,seserían,565,word,1,True,4,3.8301470279693604,2,
R2362,runabas,566,word,1,True,4,0.7990598678588867,2,
R2362,cisabas,567,word,1,True,4,0.5740129947662354,2,
R2362,rayarías,568,word,2,True,4,0.7200617790222168,1,
R2362,cortabas,569,word,2,True,4,0.6069679260253906,1,
R2362,pavaría,570,word,1,True,4,0.6099300384521484,2,
R2362,ardería,571,word,1,False,4,0.5860879421234131,1,
R2362,faltará,572,word,2,True,4,0.9966859817504883,1,
R2362,cuarrirías,573,word,1,True,4,1.3728337287902832,2,
R2362,lacherías,574,word,1,True,4,1.4978408813476562,2,
R2362,faneré,575,word,1,True,4,1.8769452571868896,2,
R2362,casará,576,word,2,True,4,0.8389220237731934,1,
R2362,rayarán,577,word,2,True,4,4.5479700565338135,1,
R2362,casaríamos,578,word,2,True,4,1.0110282897949219,1,
R2362,narrábamos,579,word,1,False,4,0.09011411666870117,1,
R2362,juraban,580,word,2,True,4,1.6509020328521729,1,
R2362,cuarriré,581,word,1,True,4,0.781883955001831,2,
R2362,charlaría,582,word,2,True,4,1.41703200340271,1,
R2362,lacherían,583,word,1,True,4,0.849207878112793,2,
R2362,zusarás,584,word,1,True,4,0.6418259143829346,2,
R2362,imías,585,word,1,True,4,0.6348888874053955,2,
R2362,cortarías,586,word,2,True,4,0.6710660457611084,1,
R2362,quemarás,587,word,2,True,4,0.5978879928588867,1,
R2362,bailabas,588,word,2,True,4,0.5620651245117188,1,
R2362,vultarían,589,word,1,True,4,0.7921850681304932,2,
R2362,anrían,590,word,1,True,4,0.936974048614502,2,
R2362,focaré,591,word,1,True,4,0.8638808727264404,2,
R2362,quijaría,592,word,1,True,4,1.0057909488677979,2,
R2362,rotábamos,593,word,2,True,4,1.3619930744171143,1,
R2362,fundirían,594,word,1,False,4,1.1820061206817627,1,
R2362,mardían,595,word,1,True,4,1.13205885887146,2,
R2362,lucharían,596,word,2,True,4,0.8248860836029053,1,
R2362,ardía,597,word,2,True,4,0.8049430847167969,1,
R2362,charlaba,598,word,2,True,4,1.1208858489990234,1,
R2362,tujirían,599,word,1,True,4,2.266942024230957,2,
R2362,sumabas,600,word,2,True,4,0.6522619724273682,1,
R2362,bimaría,601,word,1,True,4,0.8000359535217285,2,
R2362,retaríamos,602,word,2,True,4,1.156996250152588,1,
R2362,lailaremos,603,word,1,True,4,0.6938049793243408,2,
R2362,sufriría,604,word,2,True,4,0.5929718017578125,1,
R2362,cortaré,605,word,2,True,4,0.6671571731567383,1,
R2362,toserías,606,word,1,False,4,1.6719837188720703,1,
R2362,bailaba,607,word,2,True,4,0.5559170246124268,1,
R2362,imiré,608,word,1,True,4,0.7751998901367188,2,
R2362,tuplirán,609,word,1,True,4,0.7597291469573975,2,
R2362,tuplía,610,word,1,True,4,0.5829591751098633,2,
R2362,unirás,611,word,2,True,4,0.8461172580718994,1,
R2362,bailarían,612,word,2,True,4,0.6170878410339355,1,
R2362,bimaré,613,word,1,True,4,0.786081075668335,2,
R2362,lamías,614,word,1,False,4,0.7300920486450195,1,
R2362,ritías,615,word,1,True,4,0.8760559558868408,2,
R2362,gachará,616,word,1,True,4,3.0060839653015137,2,
R2362,vendería,617,word,2,True,4,0.6859581470489502,1,
R2362,faltábamos,618,word,2,True,4,0.5899720191955566,1,
R2362,imirás,619,word,1,True,4,2.6549577713012695,2,
R2362,seseré,620,word,1,True,4,0.628868818283081,2,
R2362,galaría,621,word,1,True,4,0.7569680213928223,2,
R2362,jurarán,622,word,2,True,4,1.3319430351257324,1,
R2362,porerá,623,word,1,True,4,1.0630309581756592,2,
R2362,moncían,624,word,1,True,4,1.0269701480865479,2,
R2362,tosías,625,word,2,True,5,0.6360020637512207,1,
R2362,cuarríamos,626,word,1,True,5,1.3470571041107178,2,
R2362,toseremos,627,word,2,True,5,0.5831828117370605,1,
R2362,ritían,628,word,1,True,5,0.6659729480743408,2,
R2362,fanerá,629,word,1,True,5,0.8029019832611084,2,
R2362,runaremos,630,word,1,True,5,0.6520888805389404,2,
R2362,ardían,631,word,2,True,5,0.7909848690032959,1,
R2362,cichíamos,632,word,1,True,5,0.9160540103912354,2,
R2362,rondarías,633,word,2,True,5,0.8312089443206787,1,
R2362,mardiríamos,634,word,1,True,5,2.2530839443206787,2,
R2362,venderás,635,word,2,True,5,1.830186128616333,1,
R2362,gacharé,636,word,1,True,5,1.018968105316162,2,
R2362,pactarías,637,word,1,False,5,0.6829168796539307,1,
R2362,rondaba,638,word,2,True,5,2.6801090240478516,1,
R2362,unirías,639,word,2,True,5,0.6487867832183838,1,
R2362,coserán,640,word,2,True,5,0.9437060356140137,1,
R2362,subirá,641,word,2,True,5,0.7799088954925537,1,
R2362,fanía,642,word,1,True,5,0.76686692237854,2,
R2362,eplabas,643,word,1,True,5,0.7648301124572754,2,
R2362,cipería,644,word,1,True,5,0.614081859588623,2,
R2362,mertarás,645,word,1,True,5,0.8500518798828125,2,
R2362,uniría,646,word,2,True,5,1.014024019241333,1,
R2362,luntirás,647,word,1,True,5,0.679163932800293,2,
R2362,frinderemos,648,word,1,True,5,1.0369091033935547,2,
R2362,cetarían,649,word,1,True,5,0.72586989402771,2,
R2362,seserá,650,word,1,True,5,0.7349379062652588,2,
R2362,prendías,651,word,1,False,5,0.43797898292541504,1,
R2362,corríamos,652,word,2,True,5,0.8450589179992676,1,
R2362,cumplían,653,word,2,True,5,1.0029780864715576,1,
R2362,metíamos,654,word,2,True,5,0.7717409133911133,1,
R2362,pactaría,655,word,1,False,5,1.3109092712402344,1,
R2362,fanería,656,word,1,True,5,0.7859258651733398,2,
R2362,comías,657,word,2,True,5,0.711918830871582,1,
R2362,mordería,658,word,2,True,5,0.6229770183563232,1,
R2362,obraré,659,word,1,False,5,0.719182014465332,1,
R2362,gruñía,660,word,2,True,5,0.6888880729675293,1,
R2362,quemábamos,661,word,2,True,5,1.30393385887146,1,
R2362,jurarían,662,word,2,True,5,2.734959125518799,1,
R2362,jurábamos,663,word,2,True,5,0.6059901714324951,1,
R2362,cisará,664,word,1,True,5,0.6530458927154541,2,
R2362,ceflerá,665,word,1,True,5,0.6189947128295898,2,
R2362,luntiríamos,666,word,1,True,5,0.6637980937957764,2,
R2362,luchará,667,word,2,True,5,0.7240221500396729,1,
R2362,zusaríamos,668,word,1,True,5,0.7480072975158691,2,
R2362,frindías,669,word,1,True,5,0.9759619235992432,2,
R2362,ceflía,670,word,1,True,5,0.7909591197967529,2,
R2362,lucharíamos,671,word,2,True,5,1.0060949325561523,1,
R2362,pavarían,672,word,1,True,5,0.6609039306640625,2,
R2362,bimará,673,word,1,True,5,4.042217254638672,2,
R2362,vendían,674,word,2,True,5,0.5829389095306396,1,
R2362,pactabas,675,word,2,True,5,0.7628910541534424,1,
R2362,barrería,676,word,2,True,5,0.5530209541320801,1,
R2362,bailaremos,677,word,2,True,5,0.5688929557800293,1,
R2362,anreremos,678,word,1,True,5,0.7174620628356934,2,
R2362,eplaríamos,679,word,1,True,5,0.642042875289917,2,
R2362,sufrirán,680,word,2,True,5,1.2209928035736084,1,
R2362,focarías,681,word,1,True,5,0.853801965713501,2,
R2362,vendíamos,682,word,2,True,5,0.6040019989013672,1,
R2362,cortaríamos,683,word,2,True,5,2.0640790462493896,1,
R2362,gruñíamos,684,word,2,True,5,0.7328808307647705,1,
R2362,cuarría,685,word,1,True,5,0.8871278762817383,2,
R2362,cipía,686,word,1,True,5,0.9379680156707764,2,
R2362,lameré,687,word,2,True,5,2.268951177597046,1,
R2362,sumaría,688,word,2,True,5,0.8171062469482422,1,
R2362,bruvirías,689,word,1,True,5,0.6847631931304932,2,
R2362,narrabas,690,word,2,True,5,1.0240709781646729,1,
R2362,obraban,691,word,1,False,5,2.8260858058929443,1,
R2362,bruvirán,692,word,1,True,5,0.78094482421875,2,
R2362,unían,693,word,2,True,5,1.2641198635101318,1,
R2362,cenarán,694,word,2,True,5,1.063845157623291,1,
R2362,pavaré,695,word,1,True,5,2.062026023864746,2,
R2362,nadaba,696,word,2,True,5,0.5320351123809814,1,
R2362,somería,697,word,1,True,5,0.6528739929199219,2,
R2362,narrará,698,word,2,True,5,0.5910639762878418,1,
R2362,gruñías,699,word,2,True,5,0.6112618446350098,1,
R2362,tuplirá,700,word,1,True,5,0.6311459541320801,2,
R2362,bailarás,701,word,2,True,5,0.6870570182800293,1,
R2362,tujirías,702,word,1,True,5,0.7780270576477051,2,
R2362,imirá,703,word,1,True,5,0.8969039916992188,2,
R2362,imirías,704,word,1,True,5,0.581946849822998,2,
R2362,sumarían,705,word,1,False,5,0.689934253692627,1,
R2362,casabas,706,word,2,True,5,0.6768667697906494,1,
R2362,imirán,707,word,1,True,5,1.5669538974761963,2,
R2362,chanrarías,708,word,1,True,5,1.1859028339385986,2,
R2362,barrerías,709,word,1,False,5,1.881964921951294,1,
R2362,cisaremos,710,word,1,True,5,1.132399082183838,2,
R2362,toserán,711,word,2,True,5,1.053959846496582,1,
R2362,cortarás,712,word,2,True,5,0.8840100765228271,1,
R2362,lorgábamos,713,word,1,True,5,1.1098339557647705,2,
R2362,sindaba,714,word,1,True,5,0.6700479984283447,2,
R2362,lacheremos,715,word,1,True,5,0.732022762298584,2,
R2362,sauaremos,716,word,1,True,5,0.6449501514434814,2,
R2362,formará,717,word,2,True,5,0.8558521270751953,1,
R2362,barreré,718,word,2,True,5,1.1021158695220947,1,
R2362,tosía,719,word,2,True,5,0.8051841259002686,1,
R2362,maftarás,720,word,1,True,5,1.0398612022399902,2,
R2362,burrará,721,word,1,True,5,0.854907751083374,2,
R2362,anreríamos,722,word,1,True,5,1.9110949039459229,2,
R2362,eplaría,723,word,1,True,5,0.6801419258117676,2,
R2362,cichían,724,word,1,True,5,0.6388471126556396,2,
R2362,cortará,725,word,2,True,5,2.6350808143615723,1,
R2362,formarías,726,word,2,True,5,1.1092588901519775,1,
R2362,cenábamos,727,word,2,True,5,0.9666972160339355,1,
R2362,besábamos,728,word,2,True,5,1.3020248413085938,1,
R2362,obrarían,729,word,1,False,5,2.770988941192627,1,
R2362,formaban,730,word,2,True,5,0.8248217105865479,1,
R2362,chanraría,731,word,1,True,5,0.8139266967773438,2,
R2362,retarán,732,word,2,True,5,0.6949329376220703,1,
R2362,imían,733,word,1,True,5,0.7438359260559082,2,
R2362,fanerás,734,word,1,True,5,1.1464650630950928,2,
R2362,tujirás,735,word,1,True,5,0.9529531002044678,2,
R2362,pavarías,736,word,1,True,5,0.5939850807189941,2,
R2362,tujías,737,word,1,True,5,0.6498959064483643,2,
R2362,moncería,738,word,1,True,5,0.7108519077301025,2,
R2362,ciperán,739,word,1,True,5,0.6018147468566895,2,
R2362,tujirá,740,word,1,True,5,0.6689860820770264,2,
R2362,sufríamos,741,word,2,True,5,1.1479430198669434,1,
R2362,riteremos,742,word,1,True,5,1.683946132659912,2,
R2362,prenderán,743,word,2,True,5,1.3160400390625,1,
R2362,ceflerían,744,word,1,True,5,0.8568909168243408,2,
R2362,correremos,745,word,2,True,5,1.3540120124816895,1,
R2362,jurarías,746,word,2,True,5,2.176039934158325,1,
R2362,meteremos,747,word,2,True,5,0.9871759414672852,1,
R2362,cefleríamos,748,word,1,True,5,2.869149923324585,2,
R2362,vultarán,749,word,1,True,5,0.8040430545806885,2,
R2362,faneremos,750,word,1,True,5,0.6098339557647705,2,
R2362,zusarán,751,word,1,True,5,0.4959230422973633,2,
R2362,sufrirían,752,word,2,True,5,0.8050761222839355,1,
R2362,temía,753,word,2,True,5,1.0629661083221436,1,
R2362,pavábamos,754,word,1,True,5,0.7081239223480225,2,
R2362,meterás,755,word,2,True,5,1.2279009819030762,1,
R2362,porías,756,word,1,True,5,0.8190679550170898,2,
R2362,cisaríamos,757,word,1,True,5,1.478327989578247,2,
R2362,fundíamos,758,word,2,True,5,2.564851999282837,1,
R2362,lucharé,759,word,1,False,5,0.24944114685058594,1,
R2362,besarán,760,word,2,True,5,1.1480488777160645,1,
R2362,poreré,761,word,1,True,5,0.7268962860107422,2,
R2362,venderán,762,word,2,True,5,0.9749100208282471,1,
R2362,cisaré,763,word,1,True,5,0.6558718681335449,2,
R2362,cetarías,764,word,1,True,5,0.6689510345458984,2,
R2362,hondían,765,word,1,True,5,0.638063907623291,2,
R2362,cumplía,766,word,2,True,5,0.7659761905670166,1,
R2362,bruvíamos,767,word,1,True,5,0.9082040786743164,2,
R2362,sindaré,768,word,1,True,5,0.6621260643005371,2,
R2362,lachías,769,word,1,True,5,1.3389337062835693,2,
R2362,partirías,770,word,2,True,5,0.959968090057373,1,
R2362,arderé,771,word,2,True,5,1.4699718952178955,1,
R2362,somerán,772,word,1,True,5,0.8809640407562256,2,
R2362,arderían,773,word,1,False,5,3.0971548557281494,1,
R2362,cenabas,774,word,2,True,5,0.6608507633209229,1,
R2362,tujiré,775,word,1,True,5,0.8791680335998535,2,
R2362,cuarrían,776,word,1,True,5,0.6949291229248047,2,
R2362,rotarás,777,word,2,True,5,1.0170581340789795,1,
R2362,obraría,778,word,1,False,5,0.858036994934082,1,
R2362,cumplirían,779,word,2,True,5,0.799022912979126,1,
R2362,mertaremos,780,word,1,True,5,1.5758938789367676,2,
R2362,bruvían,781,word,1,True,6,0.6889159679412842,2,
R2362,burrabas,782,word,1,True,6,0.8529770374298096,2,
R2362,vultaban,783,word,1,True,6,0.6238868236541748,2,
R2362,ardías,784,word,2,True,6,0.6710450649261475,1,
R2362,partiré,785,word,2,True,6,0.6815869808197021,1,
R2362,rimarían,786,word,1,False,6,0.6950478553771973,1,
R2362,galará,787,word,1,True,6,0.5989608764648438,2,
R2362,gacharías,788,word,1,True,6,0.5588068962097168,2,
R2362,sufrirás,789,word,2,True,6,0.648123025894165,1,
R2362,cederé,790,word,1,False,6,0.5778720378875732,1,
R2362,juraría,791,word,2,True,6,0.6508388519287109,1,
R2362,bigarán,792,word,1,True,6,0.7009871006011963,2,
R2362,burrarías,793,word,1,True,6,0.9890248775482178,2,
R2362,pactará,794,word,1,False,6,0.7759888172149658,1,
R2362,runará,795,word,1,True,6,0.6371462345123291,2,
R2362,sauaré,796,word,1,True,6,0.606957197189331,2,
R2362,charlábamos,797,word,2,True,6,1.3519458770751953,1,
R2362,lailaban,798,word,1,True,6,0.7941901683807373,2,
R2362,bailarán,799,word,2,True,6,0.6540610790252686,1,
R2362,formaba,800,word,2,True,6,1.1088519096374512,1,
R2362,prenderá,801,word,2,True,6,2.2240960597991943,1,
R2362,nadaría,802,word,2,True,6,1.1108109951019287,1,
R2362,juraba,803,word,2,True,6,1.4780480861663818,1,
R2362,riteré,804,word,1,True,6,0.8659381866455078,2,
R2362,quijaré,805,word,1,True,6,0.9940342903137207,2,
R2362,cenaban,806,word,2,True,6,0.8259739875793457,1,
R2362,cetará,807,word,1,True,6,1.1489028930664062,2,
R2362,cedía,808,word,2,True,6,1.5779170989990234,1,
R2362,obrarás,809,word,2,True,6,4.976258754730225,1,
R2362,prenderemos,810,word,2,True,6,0.8651089668273926,1,
R2362,retará,811,word,2,True,6,1.700890064239502,1,
R2362,cefleré,812,word,1,True,6,0.6558749675750732,2,
R2362,eplará,813,word,1,True,6,0.5993680953979492,2,
R2362,monceremos,814,word,1,True,6,0.588371992111206,2,
R2362,bimarás,815,word,1,True,6,0.4852900505065918,2,
R2362,ardíamos,816,word,1,False,6,0.5100491046905518,1,
R2362,nadábamos,817,word,2,True,6,0.7130639553070068,1,
R2362,rotaría,818,word,2,True,6,0.645334005355835,1,
R2362,lachíamos,819,word,1,True,6,0.6555609703063965,2,
R2362,pactaríamos,820,word,1,False,6,0.8480660915374756,1,
R2362,chanrará,821,word,1,True,6,0.5792210102081299,2,
R2362,correría,822,word,2,True,6,0.7402980327606201,1,
R2362,burraba,823,word,1,True,6,0.7371828556060791,2,
R2362,sumará,824,word,1,False,6,0.5052351951599121,1,
R2362,luchabas,825,word,2,True,6,0.694256067276001,1,
R2362,rondaban,826,word,2,True,6,1.9214327335357666,1,
R2362,quijaríamos,827,word,1,True,6,0.9945616722106934,2,
R2362,cetía,828,word,1,True,6,0.6532340049743652,2,
R2362,moncerían,829,word,1,True,6,0.6092789173126221,2,
R2362,cenarás,830,word,2,True,6,0.8732447624206543,1,
R2362,anrerás,831,word,1,True,6,0.6772618293762207,2,
R2362,rondarás,832,word,2,True,6,1.6083271503448486,1,
R2362,comerás,833,word,2,True,6,0.791327953338623,1,
R2362,coseré,834,word,1,False,6,1.2427849769592285,1,
R2362,tupliríamos,835,word,1,True,6,0.7439558506011963,2,
R2362,ceteré,836,word,1,True,6,1.4349219799041748,2,
R2362,riterían,837,word,1,True,6,0.6899237632751465,2,
R2362,narraría,838,word,2,True,6,0.7798850536346436,1,
R2362,pactaremos,839,word,1,False,6,0.7908992767333984,1,
R2362,gacharíamos,840,word,1,True,6,0.9480321407318115,2,
R2362,rotaba,841,word,2,True,6,1.3707399368286133,1,
R2362,chanrábamos,842,word,1,True,6,1.4067649841308594,2,
R2362,zusarían,843,word,1,True,6,0.9770350456237793,2,
R2362,gruñiría,844,word,2,True,6,0.7879528999328613,1,
R2362,sindaríamos,845,word,1,True,6,1.0449621677398682,2,
R2362,besaría,846,word,2,True,6,0.7940289974212646,1,
R2362,quemaría,847,word,2,True,6,1.4640729427337646,1,
R2362,cetíamos,848,word,1,True,6,0.963871955871582,2,
R2362,gachaba,849,word,1,True,6,0.8610279560089111,2,
R2362,comerían,850,word,2,True,6,0.6731469631195068,1,
R2362,barrerían,851,word,2,True,6,4.743009090423584,1,
R2362,cichiré,852,word,1,True,6,0.6129977703094482,2,
R2362,rayaban,853,word,2,True,6,0.9210100173950195,1,
R2362,anreré,854,word,1,True,6,0.6710991859436035,2,
R2362,cichiría,855,word,1,True,6,0.6888208389282227,2,
R2362,subíamos,856,word,2,True,6,0.9818389415740967,1,
R2362,corrías,857,word,2,True,6,1.0169219970703125,1,
R2362,toseré,858,word,2,True,6,0.879025936126709,1,
R2362,faltaban,859,word,2,True,6,0.6239051818847656,1,
R2362,runarían,860,word,1,True,6,0.6319801807403564,2,
R2362,cumplirán,861,word,2,True,6,0.9410240650177002,1,
R2362,luchábamos,862,word,2,True,6,1.1990058422088623,1,
R2362,formarás,863,word,2,True,6,0.6772317886352539,1,
R2362,cubrían,864,word,2,True,6,1.0040960311889648,1,
R2362,besabas,865,word,2,True,6,0.929934024810791,1,
R2362,rimábamos,866,word,1,False,6,1.110131025314331,1,
R2362,bailábamos,867,word,2,True,6,0.6769251823425293,1,
R2362,chanraríamos,868,word,2,False,6,4.6090428829193115,2,
R2362,comerán,869,word,2,True,6,0.6118147373199463,1,
R2362,rotará,870,word,2,True,6,0.7017960548400879,1,
R2362,sindarías,871,word,1,True,6,0.6939699649810791,2,
R2362,bruviría,872,word,1,True,6,0.6629791259765625,2,
R2362,someré,873,word,1,True,6,0.6709849834442139,2,
R2362,besarás,874,word,2,True,6,0.6109378337860107,1,
R2362,obrarías,875,word,1,False,6,0.9520173072814941,1,
R2362,tujirán,876,word,1,True,6,1.002763032913208,2,
R2362,prendería,877,word,2,True,6,0.7721168994903564,1,
R2362,venderías,878,word,2,True,6,1.219054937362671,1,
R2362,lorgará,879,word,1,True,6,1.0780811309814453,2,
R2362,frinderá,880,word,1,True,6,0.8248519897460938,2,
R2362,lacherás,881,word,1,True,6,0.5799479484558105,2,
R2362,chanraremos,882,word,1,True,6,0.8751540184020996,2,
R2362,besará,883,word,2,True,6,0.6948442459106445,1,
R2362,seserás,884,word,1,True,6,0.6960391998291016,2,
R2362,meterías,885,word,2,True,6,1.1469297409057617,1,
R2362,galaban,886,word,1,True,6,0.9178371429443359,2,
R2362,formaríamos,887,word,2,True,6,1.1907908916473389,1,
R2362,hondería,888,word,1,True,6,1.0131289958953857,2,
R2362,honderemos,889,word,1,True,6,0.629767894744873,2,
R2362,rondabas,890,word,2,True,6,1.4969730377197266,1,
R2362,besarías,891,word,2,True,6,0.9032220840454102,1,
R2362,cenarían,892,word,2,True,6,0.7418639659881592,1,
R2362,ceflería,893,word,1,True,6,0.9189448356628418,2,
R2362,cederíamos,894,word,1,False,6,3.2540788650512695,1,
R2362,toserían,895,word,1,False,6,1.8709979057312012,1,
R2362,fundirías,896,word,1,False,6,1.349059820175171,1,
R2362,casarían,897,word,2,True,6,0.7699949741363525,1,
R2362,quijarán,898,word,1,True,6,1.0820317268371582,2,
R2362,rayaré,899,word,2,True,6,1.2810728549957275,1,
R2362,jurabas,900,word,2,True,6,0.648892879486084,1,
R2362,bigarás,901,word,1,True,6,0.7209780216217041,2,
R2362,lailaré,902,word,1,True,6,0.7739241123199463,2,
R2362,temeremos,903,word,2,True,6,5.728954076766968,1,
R2362,quemaremos,904,word,2,True,6,0.6663789749145508,1,
R2362,poríamos,905,word,1,True,6,1.0239191055297852,2,
R2362,narrarán,906,word,2,True,6,1.2729921340942383,1,
R2362,sauará,907,word,1,True,6,0.7470369338989258,2,
R2362,cisaría,908,word,1,True,6,0.5888168811798096,2,
R2362,bigaremos,909,word,1,True,6,0.6790719032287598,2,
R2362,bailaban,910,word,2,True,6,0.6350820064544678,1,
R2362,lamerías,911,word,1,False,6,1.6229629516601562,1,
R2362,lorgaríamos,912,word,2,False,6,1.2580780982971191,2,
R2362,imiremos,913,word,1,True,6,0.7228789329528809,2,
R2362,cumpliremos,914,word,2,True,6,0.6750140190124512,1,
R2362,venderíamos,915,word,2,True,6,1.629992961883545,1,
R2362,focará,916,word,1,True,6,0.8070230484008789,2,
R2362,jurará,917,word,2,True,6,0.7880098819732666,1,
R2362,subirás,918,word,2,True,6,0.5870568752288818,1,
R2362,gacharemos,919,word,1,True,6,1.1388838291168213,2,
R2362,galarían,920,word,1,True,6,0.7969319820404053,2,
R2362,monceré,921,word,1,True,6,0.682049036026001,2,
R2362,obraríamos,922,word,1,False,6,1.0741419792175293,1,
R2362,pactarás,923,word,1,False,6,0.5620250701904297,1,
R2362,somían,924,word,1,True,6,0.6229550838470459,2,
R2362,mertaría,925,word,1,True,6,0.9609379768371582,2,
R2362,rondará,926,word,1,False,6,0.7688608169555664,1,
R2362,galabas,927,word,1,True,6,0.5598998069763184,2,
R2362,ritíamos,928,word,1,True,6,1.691162109375,2,
R2362,burrarán,929,word,1,True,6,1.595041036605835,2,
R2362,bruvías,930,word,1,True,6,0.6589529514312744,2,
R2362,cenarías,931,word,2,True,6,0.9069719314575195,1,
R2362,unirían,932,word,2,True,6,0.811917781829834,1,
R2362,lamerían,933,word,1,False,6,1.7980549335479736,1,
R2362,uniré,934,word,2,True,6,1.0180537700653076,1,
R2362,lameríamos,935,word,1,False,6,1.9500148296356201,1,
R2362,honderán,936,word,1,True,6,3.1500532627105713,2,
R2362,narraríamos,937,word,2,True,7,0.9138679504394531,1,
R2362,correríamos,938,word,2,True,7,0.8059027194976807,1,
R2362,bruviremos,939,word,1,True,7,0.8130676746368408,2,
R2362,lamía,940,word,1,False,7,1.024031162261963,1,
R2362,rayará,941,word,2,True,7,0.5688848495483398,1,
R2362,bruvirá,942,word,1,True,7,0.6100780963897705,2,
R2362,luntiremos,943,word,1,True,7,0.5953798294067383,2,
R2362,prenderás,944,word,2,True,7,0.83390212059021,1,
R2362,lailará,945,word,1,True,7,0.6190979480743408,2,
R2362,quijaba,946,word,1,True,7,1.0779578685760498,2,
R2362,sauaban,947,word,1,True,7,0.6098461151123047,2,
R2362,runaré,948,word,1,True,7,0.6960840225219727,2,
R2362,narraremos,949,word,2,True,7,1.235912799835205,1,
R2362,honderé,950,word,1,True,7,0.6018340587615967,2,
R2362,rimaremos,951,word,1,False,7,0.6269681453704834,1,
R2362,poría,952,word,1,True,7,0.9320440292358398,2,
R2362,arderías,953,word,1,False,7,0.5066239833831787,1,
R2362,mardíamos,954,word,1,True,7,1.4670288562774658,2,
R2362,mertaban,955,word,1,True,7,0.7380080223083496,2,
R2362,cedería,956,word,2,True,7,1.1668269634246826,1,
R2362,gruñiremos,957,word,2,True,7,0.9080708026885986,1,
R2362,obrabas,958,word,1,False,7,1.3749687671661377,1,
R2362,cichiríamos,959,word,1,True,7,0.7099900245666504,2,
R2362,narrarías,960,word,2,True,7,0.8130490779876709,1,
R2362,uniremos,961,word,2,True,7,0.778127908706665,1,
R2362,vultaba,962,word,1,True,7,2.7341349124908447,2,
R2362,prendíamos,963,word,2,True,7,1.601952075958252,1,
R2362,faltaba,964,word,2,True,7,0.603917121887207,1,
R2362,fanías,965,word,1,True,7,0.8499610424041748,2,
R2362,cubriría,966,word,2,True,7,1.6149239540100098,1,
R2362,arderemos,967,word,2,True,7,1.1669402122497559,1,
R2362,maftaremos,968,word,1,True,7,0.7988359928131104,2,
R2362,comeré,969,word,2,True,7,0.7029950618743896,1,
R2362,zusaremos,970,word,1,True,7,0.6879780292510986,2,
R2362,tuplían,971,word,1,True,7,0.7057068347930908,2,
R2362,quijábamos,972,word,1,True,7,1.9059319496154785,2,
R2362,rotaríamos,973,word,1,False,7,0.7760298252105713,1,
R2362,mertaré,974,word,1,True,7,0.8258450031280518,2,
R2362,ciperías,975,word,1,True,7,0.5939152240753174,2,
R2362,prendían,976,word,2,True,7,1.1449449062347412,1,
R2362,venderá,977,word,2,True,7,1.825904130935669,1,
R2362,temerían,978,word,1,False,7,2.248002052307129,1,
R2362,rotaremos,979,word,1,False,7,1.0279710292816162,1,
R2362,subías,980,word,2,True,7,0.7559218406677246,1,
R2362,bimaríamos,981,word,1,True,7,2.0941238403320312,2,
R2362,cenaré,982,word,2,True,7,0.6191501617431641,1,
R2362,sindarán,983,word,1,True,7,0.8030798435211182,2,
R2362,juraremos,984,word,2,True,7,0.7590909004211426,1,
R2362,luntirían,985,word,1,True,7,0.8017771244049072,2,
R2362,porían,986,word,1,True,7,0.8400998115539551,2,
R2362,morderás,987,word,2,True,7,1.1300878524780273,1,
R2362,lucharás,988,word,2,True,7,0.7379820346832275,1,
R2362,frindíamos,989,word,1,True,7,1.3940179347991943,2,
R2362,pavaba,990,word,1,True,7,0.7652509212493896,2,
R2362,formarían,991,word,2,True,7,1.392024040222168,1,
R2362,partíamos,992,word,2,True,7,2.5379908084869385,1,
R2362,cetarán,993,word,1,True,7,0.8170781135559082,2,
R2362,cumplirá,994,word,2,True,7,0.6831331253051758,1,
R2362,bigaríamos,995,word,1,True,7,0.8470058441162109,2,
R2362,cisábamos,996,word,1,True,7,0.6828758716583252,2,
R2362,cipíamos,997,word,1,True,7,0.829984188079834,2,
R2362,rimarías,998,word,1,False,7,0.7443110942840576,1,
R2362,zusaban,999,word,1,True,7,0.7989897727966309,2,
R2362,honderías,1000,word,1,True,7,0.8189132213592529,2,
R2362,cederías,1001,word,2,True,7,1.694047212600708,1,
R2362,sumábamos,1002,word,2,True,7,2.023911237716675,1,
R2362,sindará,1003,word,1,True,7,0.8139829635620117,2,
R2362,sindabas,1004,word,1,True,7,0.7580881118774414,2,
R2362,besaban,1005,word,2,True,7,0.7539520263671875,1,
R2362,galaríamos,1006,word,1,True,7,0.8531520366668701,2,
R2362,rayabas,1007,word,2,True,7,1.0381388664245605,1,
R2362,quijarían,1008,word,1,True,7,1.142003059387207,2,
R2362,somerás,1009,word,1,True,7,1.3510050773620605,2,
R2362,obraremos,1010,word,1,False,7,1.3139519691467285,1,
R2362,sumarías,1011,word,2,True,7,1.6109910011291504,1,
R2362,galarán,1012,word,1,True,7,0.8198838233947754,2,
R2362,obrábamos,1013,word,1,False,7,1.5348479747772217,1,
R2362,sesería,1014,word,1,True,7,0.9079859256744385,2,
R2362,faltarían,1015,word,2,True,7,1.163057804107666,1,
R2362,lamíamos,1016,word,1,False,7,1.659850835800171,1,
R2362,barreríamos,1017,word,1,False,7,1.0579020977020264,1,
R2362,bigará,1018,word,1,True,7,0.7409658432006836,2,
R2362,quijabas,1019,word,1,True,7,0.9520320892333984,2,
R2362,fundía,1020,word,2,True,7,1.6570978164672852,1,
R2362,burrábamos,1021,word,1,True,7,1.0420987606048584,2,
R2362,lucharías,1022,word,2,True,7,1.2874081134796143,1,
R2362,tuplirían,1023,word,1,True,7,0.81787109375,2,
R2362,pavaremos,1024,word,1,True,7,1.0988287925720215,2,
R2362,charlarás,1025,word,2,True,7,1.1000640392303467,1,
R2362,rimará,1026,word,1,False,7,0.8272550106048584,1,
R2362,correrían,1027,word,2,True,7,1.297966718673706,1,
R2362,bruvirás,1028,word,1,True,7,0.874906063079834,2,
R2362,sauábamos,1029,word,1,True,7,0.9670469760894775,2,
R2362,luntiré,1030,word,1,True,7,1.0940370559692383,2,
R2362,ceterás,1031,word,1,True,7,0.7292661666870117,2,
R2362,lorgarían,1032,word,2,False,7,0.9209859371185303,2,
R2362,bigábamos,1033,word,1,True,7,0.708953857421875,2,
R2362,maftabas,1034,word,1,True,7,0.5630359649658203,2,
R2362,luntiría,1035,word,1,True,7,0.7179722785949707,2,
R2362,mordían,1036,word,2,True,7,0.9959201812744141,1,
R2362,retaría,1037,word,2,True,7,0.7097373008728027,1,
R2362,retabas,1038,word,2,True,7,0.6138849258422852,1,
R2362,lucharemos,1039,word,2,True,7,0.7428689002990723,1,
R2362,runarías,1040,word,1,True,7,0.6309640407562256,2,
R2362,partirían,1041,word,2,True,7,2.768315076828003,1,
R2362,lucharán,1042,word,2,True,7,0.6068131923675537,1,
R2362,cederían,1043,word,2,True,7,1.4311192035675049,1,
R2362,luntía,1044,word,1,True,7,0.719045877456665,2,
R2362,bimaba,1045,word,1,True,7,0.6009559631347656,2,
R2362,zusaría,1046,word,1,True,7,0.6210439205169678,2,
R2362,tosería,1047,word,1,False,7,2.46090030670166,1,
R2362,mordías,1048,word,2,True,7,1.0887911319732666,1,
R2362,retaban,1049,word,2,True,7,0.7458770275115967,1,
R2362,casábamos,1050,word,2,True,7,1.164090871810913,1,
R2362,cederás,1051,word,2,True,7,1.3550529479980469,1,
R2362,obraba,1052,word,1,False,7,1.0638902187347412,1,
R2362,rotabas,1053,word,2,True,7,3.5051488876342773,1,
R2362,barrerá,1054,word,1,False,7,1.0220270156860352,1,
R2362,imíamos,1055,word,1,True,7,0.5700011253356934,2,
R2362,nadabas,1056,word,2,True,7,0.6799440383911133,1,
R2362,obrarán,1057,word,1,False,7,0.6707839965820312,1,
R2362,vendías,1058,word,2,True,7,0.7730259895324707,1,
R2362,pavarás,1059,word,1,True,7,0.6871218681335449,2,
R2362,pactaban,1060,word,1,False,7,1.2571210861206055,1,
R2362,rondarán,1061,word,1,False,7,0.67696213722229,1,
R2362,comíamos,1062,word,2,True,7,0.6289830207824707,1,
R2362,unirán,1063,word,2,True,7,0.6559617519378662,1,
R2362,formaría,1064,word,2,True,7,1.1350560188293457,1,
R2362,prenderé,1065,word,2,True,7,0.7371320724487305,1,
R2362,lorgaremos,1066,word,1,True,7,1.2859599590301514,2,
R2362,cuarrirían,1067,word,1,True,7,1.0619280338287354,2,
R2362,barríamos,1068,word,2,True,7,0.9659531116485596,1,
R2362,venderemos,1069,word,2,True,7,0.6478698253631592,1,
R2362,zusaba,1070,word,1,True,7,0.6320850849151611,2,
R2362,cedían,1071,word,2,True,7,1.2009520530700684,1,
R2362,sindarían,1072,word,1,True,7,0.7504539489746094,2,
R2362,sesía,1073,word,1,True,7,0.6380248069763184,2,
R2362,arderíamos,1074,word,1,False,7,2.688002109527588,1,
R2362,somías,1075,word,1,True,7,0.7852380275726318,2,
R2362,correrías,1076,word,2,True,7,1.5149750709533691,1,
R2362,temería,1077,word,2,True,7,0.8189139366149902,1,
R2362,charlaremos,1078,word,2,True,7,1.0978431701660156,1,
R2362,partiremos,1079,word,1,False,7,2.449024200439453,1,
R2362,cichiremos,1080,word,1,True,7,0.6760179996490479,2,
R2362,anrería,1081,word,1,True,7,1.5997200012207031,2,
R2362,faltarán,1082,word,2,True,7,0.7930507659912109,1,
R2362,casaba,1083,word,2,True,7,0.6079769134521484,1,
R2362,chanrarás,1084,word,1,True,7,0.7849972248077393,2,
R2362,cisarían,1085,word,1,True,7,0.5590670108795166,2,
R2362,runarás,1086,word,1,True,7,0.6888318061828613,2,
R2362,sauarán,1087,word,1,True,7,0.7278110980987549,2,
R2362,rayaremos,1088,word,2,True,7,1.0041890144348145,1,
R2362,vultábamos,1089,word,1,True,7,0.7599971294403076,2,
R2362,corrían,1090,word,2,True,7,0.7070119380950928,1,
R2362,lailarías,1091,word,1,True,7,0.696120023727417,2,
R2362,focaría,1092,word,1,True,7,0.9229559898376465,2,
