participant,stimuli,trialNum,target_type,response,correct,block,reaction_time,trigger,
R2363,uniremos,1,word,2,True,1,2.8139078617095947,1,
R2363,cortará,2,word,2,True,1,1.8071799278259277,1,
R2363,rimaría,3,word,1,False,1,5.174702882766724,1,
R2363,cedía,4,word,2,True,1,1.6489272117614746,1,
R2363,lorgaríamos,5,word,2,False,1,1.4609959125518799,2,
R2363,quemaríamos,6,word,2,True,1,1.5216262340545654,1,
R2363,gacharía,7,word,2,False,1,3.186944007873535,2,
R2363,bruviríamos,8,word,1,True,1,2.9118289947509766,2,
R2363,corrías,9,word,2,True,1,1.3939552307128906,1,
R2363,retábamos,10,word,2,True,1,2.685821294784546,1,
R2363,tujirías,11,word,1,True,1,1.9850599765777588,2,
R2363,narraré,12,word,2,True,1,1.2909388542175293,1,
R2363,faltarán,13,word,2,True,1,1.6959795951843262,1,
R2363,bimaremos,14,word,1,True,1,1.291152000427246,2,
R2363,correrían,15,word,2,True,1,2.237779140472412,1,
R2363,juraré,16,word,2,True,1,1.5459449291229248,1,
R2363,formaremos,17,word,2,True,1,1.1480228900909424,1,
R2363,cubriría,18,word,2,True,1,1.217069149017334,1,
R2363,zusará,19,word,1,True,1,2.239090919494629,2,
R2363,cubríamos,20,word,2,True,1,1.0730202198028564,1,
R2363,rotaban,21,word,2,True,1,1.7359209060668945,1,
R2363,tuplíamos,22,word,1,True,1,5.126236200332642,2,
R2363,mardirá,23,word,1,True,1,3.1368439197540283,2,
R2363,arderé,24,word,2,True,1,3.0039522647857666,1,
R2363,tujíamos,25,word,1,True,1,3.979942798614502,2,
R2363,hondías,26,word,1,True,1,3.8629140853881836,2,
R2363,lacherían,27,word,2,False,1,5.348119020462036,2,
R2363,somerás,28,word,1,True,1,6.521003007888794,2,
R2363,fanerías,29,word,2,False,1,3.519071102142334,2,
R2363,frindería,30,word,1,True,1,3.5990288257598877,2,
R2363,gruñías,31,word,2,True,1,2.7873992919921875,1,
R2363,frindías,32,word,1,True,1,8.40008282661438,2,
R2363,bruvirían,33,word,1,True,1,7.284985065460205,2,
R2363,venderá,34,word,2,True,1,1.54488205909729,1,
R2363,maftaríamos,35,word,1,True,1,3.017000913619995,2,
R2363,rimabas,36,word,2,True,1,2.861020803451538,1,
R2363,cisaba,37,word,1,True,1,3.597031831741333,2,
R2363,retaba,38,word,2,True,1,1.6603100299835205,1,
R2363,bimarían,39,word,1,True,1,3.275799036026001,2,
R2363,cefleré,40,word,1,True,1,8.65929913520813,2,
R2363,besaremos,41,word,2,True,1,0.9188978672027588,1,
R2363,narraría,42,word,2,True,1,0.7524468898773193,1,
R2363,barríamos,43,word,2,True,1,0.9959731101989746,1,
R2363,toserían,44,word,2,True,1,0.7348458766937256,1,
R2363,cuarríamos,45,word,1,True,1,3.245939016342163,2,
R2363,subirá,46,word,2,True,1,0.8409228324890137,1,
R2363,narraban,47,word,2,True,1,0.894946813583374,1,
R2363,moncerán,48,word,1,True,1,3.6690833568573,2,
R2363,cetábamos,49,word,1,True,1,3.915057897567749,2,
R2363,tuplirás,50,word,1,True,1,3.5851528644561768,2,
R2363,rondarías,51,word,1,False,1,6.7732720375061035,1,
R2363,gacharás,52,word,2,False,1,3.057209014892578,2,
R2363,formábamos,53,word,2,True,1,1.0431411266326904,1,
R2363,correré,54,word,2,True,1,2.8484151363372803,1,
R2363,luntirías,55,word,2,False,1,5.922256231307983,2,
R2363,besaban,56,word,2,True,1,0.7952039241790771,1,
R2363,pactarías,57,word,1,False,1,1.3741569519042969,1,
R2363,cenabas,58,word,2,True,1,0.946904182434082,1,
R2363,focábamos,59,word,2,False,1,0.6722850799560547,2,
R2363,cumplía,60,word,2,True,1,3.5064408779144287,1,
R2363,frinderían,61,word,1,True,1,2.3503737449645996,2,
R2363,frinderán,62,word,1,True,1,3.0162980556488037,2,
R2363,partirán,63,word,2,True,1,1.2365198135375977,1,
R2363,lailaban,64,word,1,True,1,2.1163487434387207,2,
R2363,bigarías,65,word,1,True,1,4.158955097198486,2,
R2363,tuplía,66,word,1,True,1,3.8901829719543457,2,
R2363,rimaban,67,word,2,True,1,4.708075761795044,1,
R2363,luchaban,68,word,2,True,1,1.7848570346832275,1,
R2363,focarán,69,word,2,False,1,2.699718952178955,2,
R2363,runará,70,word,2,False,1,4.552040100097656,2,
R2363,riteríamos,71,word,1,True,1,5.92413592338562,2,
R2363,cederás,72,word,2,True,1,4.233026742935181,1,
R2363,sufriremos,73,word,2,True,1,0.9179205894470215,1,
R2363,meteríamos,74,word,2,True,1,0.6318190097808838,1,
R2363,unirían,75,word,2,True,1,0.8662772178649902,1,
R2363,uniría,76,word,2,True,1,0.9680919647216797,1,
R2363,corríamos,77,word,2,True,1,0.9630851745605469,1,
R2363,bimaríamos,78,word,1,True,1,3.8951289653778076,2,
R2363,obraban,79,word,2,True,1,1.7760260105133057,1,
R2363,chanrarías,80,word,1,True,1,4.0059380531311035,2,
R2363,vendería,81,word,2,True,1,1.654891014099121,1,
R2363,eplabas,82,word,1,True,1,2.3989481925964355,2,
R2363,chanraremos,83,word,1,True,1,1.1709821224212646,2,
R2363,cortabas,84,word,2,True,1,2.1631977558135986,1,
R2363,faltaría,85,word,2,True,1,0.8710231781005859,1,
R2363,cederé,86,word,2,True,1,0.5280439853668213,1,
R2363,cetías,87,word,1,True,1,0.9611029624938965,2,
R2363,imirás,88,word,1,True,1,2.13179874420166,2,
R2363,partirás,89,word,2,True,1,1.3860998153686523,1,
R2363,formará,90,word,2,True,1,0.9136366844177246,1,
R2363,lailaré,91,word,1,True,1,1.0128669738769531,2,
R2363,zusábamos,92,word,1,True,1,1.9769337177276611,2,
R2363,pavaba,93,word,1,True,1,2.679994821548462,2,
R2363,mardirían,94,word,1,True,1,2.3940370082855225,2,
R2363,toserías,95,word,2,True,1,1.246969223022461,1,
R2363,gruñirán,96,word,2,True,1,1.5459630489349365,1,
R2363,cederán,97,word,2,True,1,0.7289960384368896,1,
R2363,lamían,98,word,2,True,1,3.4100229740142822,1,
R2363,casarás,99,word,2,True,1,5.967950820922852,1,
R2363,lachías,100,word,1,True,1,1.2043356895446777,2,
R2363,faltábamos,101,word,2,True,1,0.8111169338226318,1,
R2363,prendía,102,word,2,True,1,1.2850379943847656,1,
R2363,besarían,103,word,2,True,1,0.6908957958221436,1,
R2363,moncerás,104,word,1,True,1,2.6049060821533203,2,
R2363,barreré,105,word,2,True,1,1.6819510459899902,1,
R2363,unirán,106,word,2,True,1,1.751081943511963,1,
R2363,seseré,107,word,1,True,1,0.982475996017456,2,
R2363,narraremos,108,word,2,True,1,0.73972487449646,1,
R2363,mordería,109,word,2,True,1,6.442133188247681,1,
R2363,anrían,110,word,1,True,1,1.1649580001831055,2,
R2363,cipíamos,111,word,2,False,1,4.294221878051758,2,
R2363,cenarían,112,word,2,True,1,3.100950002670288,1,
R2363,hondían,113,word,1,True,1,2.0140879154205322,2,
R2363,barreremos,114,word,2,True,1,0.7060542106628418,1,
R2363,lailará,115,word,1,True,1,0.8568370342254639,2,
R2363,temeré,116,word,2,True,1,0.8508849143981934,1,
R2363,narrábamos,117,word,2,True,1,0.6800498962402344,1,
R2363,gacharé,118,word,1,True,1,5.923059940338135,2,
R2363,cetaba,119,word,2,False,1,2.2774770259857178,2,
R2363,narrará,120,word,2,True,1,0.9059598445892334,1,
R2363,temeremos,121,word,2,True,1,0.9746990203857422,1,
R2363,sumaríamos,122,word,2,True,1,0.7798380851745605,1,
R2363,mardías,123,word,1,True,1,2.01111102104187,2,
R2363,nadaría,124,word,2,True,1,1.3769159317016602,1,
R2363,bimarías,125,word,1,True,1,1.1389861106872559,2,
R2363,galaré,126,word,1,True,1,4.6182191371917725,2,
R2363,casábamos,127,word,2,True,1,0.9049615859985352,1,
R2363,temerán,128,word,2,True,1,0.9770269393920898,1,
R2363,cetería,129,word,2,False,1,1.0550272464752197,2,
R2363,lailaremos,130,word,1,True,1,3.310037851333618,2,
R2363,formarías,131,word,2,True,1,6.81010103225708,1,
R2363,subíamos,132,word,2,True,1,0.7198889255523682,1,
R2363,partiríamos,133,word,2,True,1,1.6019630432128906,1,
R2363,temía,134,word,2,True,1,1.2973649501800537,1,
R2363,morderá,135,word,2,True,1,1.667961835861206,1,
R2363,cosías,136,word,2,True,1,0.45114898681640625,1,
R2363,juraba,137,word,1,False,1,3.3450558185577393,1,
R2363,rayaríamos,138,word,2,True,1,2.504934072494507,1,
R2363,obrabas,139,word,1,False,1,3.765138864517212,1,
R2363,bailaríamos,140,word,2,True,1,0.7979309558868408,1,
R2363,galaría,141,word,1,True,1,1.4490439891815186,2,
R2363,cortaban,142,word,2,True,1,2.687969923019409,1,
R2363,maftabas,143,word,1,True,1,3.311950922012329,2,
R2363,quemabas,144,word,2,True,1,2.9930291175842285,1,
R2363,cenaríamos,145,word,2,True,1,1.7369771003723145,1,
R2363,zusaba,146,word,1,True,1,0.7831072807312012,2,
R2363,lameríamos,147,word,2,True,1,0.770143985748291,1,
R2363,runaba,148,word,1,True,1,0.8219640254974365,2,
R2363,bigábamos,149,word,1,True,1,3.3309600353240967,2,
R2363,tujías,150,word,1,True,1,0.9419529438018799,2,
R2363,seserán,151,word,1,True,1,1.5699608325958252,2,
R2363,chanraba,152,word,1,True,1,1.0660932064056396,2,
R2363,charlaría,153,word,2,True,1,1.227147102355957,1,
R2363,sesían,154,word,1,True,1,3.663095712661743,2,
R2363,cichiríamos,155,word,1,True,1,4.611047029495239,2,
R2363,bruvirías,156,word,1,True,1,2.0083940029144287,2,
R2363,porerías,157,word,1,True,2,0.9904298782348633,2,
R2363,cumpliríamos,158,word,2,True,2,1.1489009857177734,1,
R2363,vultaba,159,word,1,True,2,0.789114236831665,2,
R2363,temías,160,word,2,True,2,1.2918891906738281,1,
R2363,comerías,161,word,2,True,2,0.7117969989776611,1,
R2363,toseríamos,162,word,2,True,2,0.8030169010162354,1,
R2363,retaré,163,word,1,False,2,2.9607808589935303,1,
R2363,porería,164,word,1,True,2,6.285110950469971,2,
R2363,lailarás,165,word,1,True,2,0.8828620910644531,2,
R2363,barrías,166,word,2,True,2,1.1328539848327637,1,
R2363,casaré,167,word,2,True,2,1.2550163269042969,1,
R2363,arderán,168,word,2,True,2,0.9879698753356934,1,
R2363,narrabas,169,word,2,True,2,3.444972038269043,1,
R2363,sufriré,170,word,2,True,2,0.9768803119659424,1,
R2363,lacheríamos,171,word,1,True,2,2.0398736000061035,2,
R2363,gruñiríamos,172,word,2,True,2,1.651676893234253,1,
R2363,porerás,173,word,1,True,2,1.1618497371673584,2,
R2363,formabas,174,word,2,True,2,3.1680071353912354,1,
R2363,subirían,175,word,2,True,2,1.208970069885254,1,
R2363,sauarán,176,word,1,True,2,1.2088849544525146,2,
R2363,coserá,177,word,1,False,2,2.05591082572937,1,
R2363,sumaban,178,word,2,True,2,0.9369199275970459,1,
R2363,quemaba,179,word,2,True,2,0.865959882736206,1,
R2363,riterán,180,word,1,True,2,1.216658115386963,2,
R2363,sufría,181,word,2,True,2,1.3149847984313965,1,
R2363,monceremos,182,word,1,True,2,1.188929796218872,2,
R2363,bigaremos,183,word,1,True,2,1.0440778732299805,2,
R2363,cenarías,184,word,2,True,2,3.038936138153076,1,
R2363,rayarían,185,word,2,True,2,0.8360898494720459,1,
R2363,cefleríamos,186,word,1,True,2,3.036224126815796,2,
R2363,rayaría,187,word,2,True,2,0.8010458946228027,1,
R2363,somerán,188,word,1,True,2,3.8450732231140137,2,
R2363,maftaré,189,word,1,True,2,1.1469299793243408,2,
R2363,ciperías,190,word,1,True,2,4.2941060066223145,2,
R2363,cuarrirás,191,word,1,True,2,3.4179399013519287,2,
R2363,venderías,192,word,2,True,2,0.8160052299499512,1,
R2363,riterían,193,word,1,True,2,1.5568478107452393,2,
R2363,nadaremos,194,word,2,True,2,0.9409739971160889,1,
R2363,moncíamos,195,word,1,True,2,3.0029399394989014,2,
R2363,sindaremos,196,word,1,True,2,0.9428861141204834,2,
R2363,moncerías,197,word,1,True,2,0.9815609455108643,2,
R2363,faneremos,198,word,1,True,2,1.6899678707122803,2,
R2363,quemaremos,199,word,2,True,2,0.7649049758911133,1,
R2363,nadarán,200,word,2,True,2,0.7009479999542236,1,
R2363,corrían,201,word,2,True,2,1.2049908638000488,1,
R2363,burrarán,202,word,1,True,2,1.0469551086425781,2,
R2363,honderían,203,word,1,True,2,1.6309142112731934,2,
R2363,burrabas,204,word,1,True,2,1.7909250259399414,2,
R2363,lorgaría,205,word,1,True,2,2.4170939922332764,2,
R2363,lailarías,206,word,1,True,2,2.644902229309082,2,
R2363,lorgaremos,207,word,1,True,2,1.4839801788330078,2,
R2363,bailaban,208,word,2,True,2,6.8710997104644775,1,
R2363,toserás,209,word,2,True,2,0.82094407081604,1,
R2363,lucharía,210,word,2,True,2,1.1679902076721191,1,
R2363,toseremos,211,word,2,True,2,1.1071949005126953,1,
R2363,rotarán,212,word,2,True,2,0.7669658660888672,1,
R2363,frinderemos,213,word,1,True,2,0.8928649425506592,2,
R2363,fundiremos,214,word,2,True,2,2.692958116531372,1,
R2363,bailaré,215,word,2,True,2,4.6871349811553955,1,
R2363,bigaré,216,word,1,True,2,2.986877918243408,2,
R2363,quijaré,217,word,1,True,2,2.0371992588043213,2,
R2363,subirás,218,word,2,True,2,1.0738780498504639,1,
R2363,galarás,219,word,1,True,2,2.9320483207702637,2,
R2363,gacharán,220,word,2,False,2,1.7448499202728271,2,
R2363,burrará,221,word,1,True,2,6.6150288581848145,2,
R2363,cetaban,222,word,2,False,2,1.0548450946807861,2,
R2363,cuarrirían,223,word,1,True,2,1.1497840881347656,2,
R2363,gruñiremos,224,word,2,True,2,0.8369190692901611,1,
R2363,cumplías,225,word,2,True,2,0.9329831600189209,1,
R2363,cisaríamos,226,word,1,True,2,6.86919903755188,2,
R2363,retaríamos,227,word,2,True,2,2.243856906890869,1,
R2363,mertaremos,228,word,1,True,2,2.3639280796051025,2,
R2363,bruvirás,229,word,1,True,2,0.6778819561004639,2,
R2363,cisaría,230,word,2,False,2,4.595009088516235,2,
R2363,prendías,231,word,2,True,2,1.009782075881958,1,
R2363,fanía,232,word,1,True,2,4.651960134506226,2,
R2363,pavabas,233,word,1,True,2,3.2130138874053955,2,
R2363,focaría,234,word,2,False,2,0.8940789699554443,2,
R2363,sauaba,235,word,1,True,2,1.2448041439056396,2,
R2363,runarías,236,word,1,True,2,1.6004998683929443,2,
R2363,lucharás,237,word,2,True,2,1.072997808456421,1,
R2363,maftarán,238,word,1,True,2,0.8189399242401123,2,
R2363,rayarías,239,word,2,True,2,3.683954954147339,1,
R2363,moncerían,240,word,1,True,2,1.6767921447753906,2,
R2363,obrábamos,241,word,1,False,2,1.8415930271148682,1,
R2363,cuarriríamos,242,word,1,True,2,4.169235944747925,2,
R2363,cichía,243,word,1,True,2,3.143047332763672,2,
R2363,sufriría,244,word,2,True,2,2.4239721298217773,1,
R2363,sumaba,245,word,2,True,2,1.1413776874542236,1,
R2363,unían,246,word,2,True,2,1.003859281539917,1,
R2363,meteremos,247,word,2,True,2,1.659959077835083,1,
R2363,gruñirían,248,word,2,True,2,14.348071098327637,1,
R2363,mertabas,249,word,1,True,2,3.9141011238098145,2,
R2363,runarán,250,word,1,True,2,4.865964889526367,2,
R2363,ritería,251,word,1,True,2,1.1519238948822021,2,
R2363,imiría,252,word,1,True,2,4.127209901809692,2,
R2363,pavaremos,253,word,1,True,2,2.046945095062256,2,
R2363,cumpliría,254,word,2,True,2,4.737218141555786,1,
R2363,chanraría,255,word,1,True,2,1.2727458477020264,2,
R2363,bailaremos,256,word,2,True,2,3.906191110610962,1,
R2363,barrían,257,word,2,True,2,0.8748342990875244,1,
R2363,runaríamos,258,word,1,True,2,8.534105062484741,2,
R2363,besaré,259,word,2,True,2,4.461978197097778,1,
R2363,pactarían,260,word,1,False,2,1.3429739475250244,1,
R2363,luntíamos,261,word,1,True,2,4.275956153869629,2,
R2363,gacharían,262,word,1,True,2,3.023020029067993,2,
R2363,sindaré,263,word,1,True,2,1.8978710174560547,2,
R2363,fanerían,264,word,1,True,2,0.9147729873657227,2,
R2363,casaría,265,word,2,True,2,1.063704013824463,1,
R2363,ritían,266,word,1,True,2,1.0482420921325684,2,
R2363,cubrían,267,word,2,True,2,1.1528840065002441,1,
R2363,casarían,268,word,2,True,2,1.1879780292510986,1,
R2363,lamía,269,word,2,True,2,1.086916208267212,1,
R2363,vultaría,270,word,1,True,2,1.009063959121704,2,
R2363,pavarías,271,word,1,True,2,2.280198097229004,2,
R2363,rondaría,272,word,1,False,2,3.1070609092712402,1,
R2363,bailábamos,273,word,2,True,2,5.108556032180786,1,
R2363,meterías,274,word,2,True,2,1.2728781700134277,1,
R2363,pavaríamos,275,word,1,True,2,0.6958379745483398,2,
R2363,meterá,276,word,2,True,2,1.1300463676452637,1,
R2363,galarían,277,word,1,True,2,0.8142580986022949,2,
R2363,nadabas,278,word,2,True,2,0.9479670524597168,1,
R2363,correrías,279,word,2,True,2,0.7189157009124756,1,
R2363,jurábamos,280,word,2,True,2,1.4030921459197998,1,
R2363,lacheré,281,word,1,True,2,3.098024845123291,2,
R2363,bruvirá,282,word,1,True,2,0.839134931564331,2,
R2363,tuplirán,283,word,1,True,2,2.059885263442993,2,
R2363,bimaba,284,word,1,True,2,0.9719159603118896,2,
R2363,porerán,285,word,2,False,2,1.3739569187164307,2,
R2363,sindará,286,word,1,True,2,2.209091901779175,2,
R2363,temerías,287,word,2,True,2,2.9629268646240234,1,
R2363,imiremos,288,word,1,True,2,0.8639030456542969,2,
R2363,luntirás,289,word,1,True,2,1.5519118309020996,2,
R2363,correrás,290,word,2,True,2,0.853966236114502,1,
R2363,lamerías,291,word,2,True,2,1.6670079231262207,1,
R2363,mertarán,292,word,1,True,2,1.391922950744629,2,
R2363,tujiré,293,word,1,True,2,4.221067190170288,2,
R2363,burraría,294,word,1,True,2,0.905055046081543,2,
R2363,comeremos,295,word,2,True,2,1.207819938659668,1,
R2363,venderás,296,word,2,True,2,0.906062126159668,1,
R2363,bruvían,297,word,1,True,2,0.8169410228729248,2,
R2363,cedías,298,word,2,True,2,7.308043956756592,1,
R2363,rotaría,299,word,2,True,2,1.5618741512298584,1,
R2363,poría,300,word,1,True,2,2.277127981185913,2,
R2363,prendían,301,word,2,True,2,1.2288782596588135,1,
R2363,cenarás,302,word,2,True,2,0.8759169578552246,1,
R2363,sufrirás,303,word,2,True,2,2.0960850715637207,1,
R2363,cubrirían,304,word,2,True,2,1.2398929595947266,1,
R2363,charlaríamos,305,word,2,True,2,1.2980999946594238,1,
R2363,cisarán,306,word,1,True,2,3.905097007751465,2,
R2363,pavarán,307,word,1,True,2,0.7709870338439941,2,
R2363,lamerían,308,word,2,True,2,1.8750231266021729,1,
R2363,cetaríamos,309,word,1,True,2,5.916161060333252,2,
R2363,mardíamos,310,word,1,True,2,2.0930089950561523,2,
R2363,chanraban,311,word,1,True,2,0.27111291885375977,2,
R2363,fundiré,312,word,1,False,2,0.5219419002532959,1,
R2363,focarían,313,word,2,False,3,2.3079240322113037,2,
R2363,pactaremos,314,word,1,False,3,1.190680742263794,1,
R2363,mardían,315,word,1,True,3,2.2542340755462646,2,
R2363,pavaría,316,word,1,True,3,0.5853450298309326,2,
R2363,formarán,317,word,2,True,3,7.488210916519165,1,
R2363,arderías,318,word,2,True,3,1.5561532974243164,1,
R2363,pactaban,319,word,1,False,3,1.1727728843688965,1,
R2363,lailabas,320,word,1,True,3,0.7931420803070068,2,
R2363,charlarías,321,word,2,True,3,0.7704877853393555,1,
R2363,zusaremos,322,word,1,True,3,0.7514479160308838,2,
R2363,rotarías,323,word,2,True,3,1.0009849071502686,1,
R2363,toserá,324,word,2,True,3,0.6949551105499268,1,
R2363,faltarías,325,word,2,True,3,0.6590399742126465,1,
R2363,chanrarían,326,word,1,True,3,0.8748929500579834,2,
R2363,retarían,327,word,1,False,3,1.2819230556488037,1,
R2363,ceterá,328,word,1,True,3,1.9919161796569824,2,
R2363,frinderá,329,word,1,True,3,3.6950578689575195,2,
R2363,pactaríamos,330,word,1,False,3,1.5569391250610352,1,
R2363,luntiría,331,word,1,True,3,0.7118868827819824,2,
R2363,somerías,332,word,1,True,3,1.2940330505371094,2,
R2363,vultaremos,333,word,1,True,3,1.1410417556762695,2,
R2363,cetarás,334,word,1,True,3,2.484677314758301,2,
R2363,cubrías,335,word,2,True,3,0.9550671577453613,1,
R2363,honderíamos,336,word,1,True,3,0.8067672252655029,2,
R2363,lacheremos,337,word,1,True,3,3.393563747406006,2,
R2363,bigaríamos,338,word,1,True,3,3.502115249633789,2,
R2363,bigaba,339,word,1,True,3,1.3582241535186768,2,
R2363,rayaré,340,word,2,True,3,1.6789779663085938,1,
R2363,fanías,341,word,1,True,3,0.8750801086425781,2,
R2363,sindarás,342,word,1,True,3,1.1150572299957275,2,
R2363,ardía,343,word,2,True,3,1.466853141784668,1,
R2363,focaban,344,word,2,False,3,0.7489299774169922,2,
R2363,faltabas,345,word,2,True,3,0.5369641780853271,1,
R2363,anríamos,346,word,1,True,3,0.9334099292755127,2,
R2363,fundiríamos,347,word,1,False,3,1.5499908924102783,1,
R2363,lamerán,348,word,2,True,3,0.6390237808227539,1,
R2363,sesería,349,word,1,True,3,1.8349688053131104,2,
R2363,gruñíamos,350,word,2,True,3,0.8199338912963867,1,
R2363,ardería,351,word,2,True,3,0.7301490306854248,1,
R2363,metía,352,word,2,True,3,1.0899558067321777,1,
R2363,retaremos,353,word,2,True,3,0.8949532508850098,1,
R2363,tujían,354,word,1,True,3,0.7722928524017334,2,
R2363,runaremos,355,word,1,True,3,3.5259170532226562,2,
R2363,partirá,356,word,2,True,3,1.6209721565246582,1,
R2363,coseríamos,357,word,1,False,3,0.8849759101867676,1,
R2363,morderían,358,word,2,True,3,0.9447569847106934,1,
R2363,casaremos,359,word,2,True,3,1.4811160564422607,1,
R2363,vultaré,360,word,1,True,3,0.9399991035461426,2,
R2363,charlaremos,361,word,2,True,3,0.8128857612609863,1,
R2363,rayabas,362,word,2,True,3,1.1146209239959717,1,
R2363,retaban,363,word,2,True,3,5.7291882038116455,1,
R2363,eplarás,364,word,1,True,3,4.313049077987671,2,
R2363,lameremos,365,word,2,True,3,1.0666358470916748,1,
R2363,bruviremos,366,word,1,True,3,3.6100008487701416,2,
R2363,honderán,367,word,1,True,3,1.551966905593872,2,
R2363,nadaríamos,368,word,2,True,3,4.979964971542358,1,
R2363,sumará,369,word,2,True,3,0.6069917678833008,1,
R2363,focaríamos,370,word,2,False,3,0.5398521423339844,2,
R2363,chanraríamos,371,word,1,True,3,1.4031641483306885,2,
R2363,zusarían,372,word,1,True,3,0.8490009307861328,2,
R2363,prenderán,373,word,2,True,3,1.0109591484069824,1,
R2363,bigarían,374,word,1,True,3,0.6989061832427979,2,
R2363,mardiríamos,375,word,1,True,3,2.3480420112609863,2,
R2363,rondará,376,word,1,False,3,2.4682857990264893,1,
R2363,temerás,377,word,2,True,3,1.0689129829406738,1,
R2363,tujiríamos,378,word,1,True,3,0.8610048294067383,2,
R2363,maftaba,379,word,1,True,3,0.6319868564605713,2,
R2363,chanraré,380,word,1,True,3,0.6820418834686279,2,
R2363,cortaría,381,word,2,True,3,0.6989760398864746,1,
R2363,luchábamos,382,word,2,True,3,1.122978925704956,1,
R2363,pactarán,383,word,1,False,3,1.8739771842956543,1,
R2363,focará,384,word,2,False,3,1.163100242614746,2,
R2363,lailaría,385,word,1,True,3,0.9012322425842285,2,
R2363,nadábamos,386,word,2,True,3,1.98698091506958,1,
R2363,correríamos,387,word,2,True,3,1.6409790515899658,1,
R2363,quemarían,388,word,2,True,3,0.9039819240570068,1,
R2363,prenderíamos,389,word,2,True,3,0.7909078598022461,1,
R2363,fanería,390,word,1,True,3,0.7760379314422607,2,
R2363,frindíamos,391,word,1,True,3,0.6301760673522949,2,
R2363,prenderá,392,word,2,True,3,3.5740952491760254,1,
R2363,ceteríamos,393,word,1,True,3,1.3768820762634277,2,
R2363,partía,394,word,2,True,3,1.2110090255737305,1,
R2363,rimarías,395,word,1,False,3,0.8310966491699219,1,
R2363,jurará,396,word,2,True,3,1.1338820457458496,1,
R2363,sindarán,397,word,1,True,3,0.6857101917266846,2,
R2363,gachabas,398,word,1,True,3,4.338019847869873,2,
R2363,eplarán,399,word,1,True,3,0.780879020690918,2,
R2363,honderías,400,word,1,True,3,0.7479619979858398,2,
R2363,mordían,401,word,2,True,3,0.6630220413208008,1,
R2363,zusarán,402,word,1,True,3,0.6253130435943604,2,
R2363,fundían,403,word,1,False,3,0.9290168285369873,1,
R2363,anrerá,404,word,1,True,3,0.7458381652832031,2,
R2363,cedería,405,word,2,True,3,1.944899082183838,1,
R2363,ceteremos,406,word,1,True,3,1.6949307918548584,2,
R2363,fundías,407,word,1,False,3,0.8581051826477051,1,
R2363,vendía,408,word,2,True,3,0.9639692306518555,1,
R2363,cuarrían,409,word,1,True,3,0.8121011257171631,2,
R2363,anrías,410,word,1,True,3,0.8709251880645752,2,
R2363,fanerás,411,word,1,True,3,1.0161418914794922,2,
R2363,anrerán,412,word,2,False,3,1.2179069519042969,2,
R2363,coserían,413,word,1,False,3,1.310943841934204,1,
R2363,prenderás,414,word,2,True,3,0.8268070220947266,1,
R2363,retarán,415,word,2,True,3,0.709942102432251,1,
R2363,pavaré,416,word,1,True,3,0.7235469818115234,2,
R2363,somería,417,word,1,True,3,0.7515320777893066,2,
R2363,gacharíamos,418,word,1,True,3,1.1411418914794922,2,
R2363,someríamos,419,word,1,True,3,1.0229182243347168,2,
R2363,sauará,420,word,1,True,3,1.0978939533233643,2,
R2363,tujirá,421,word,1,True,3,0.8139691352844238,2,
R2363,obrará,422,word,1,False,3,3.9570250511169434,1,
R2363,burrábamos,423,word,1,True,3,0.9980349540710449,2,
R2363,venderemos,424,word,2,True,3,0.8922672271728516,1,
R2363,venderíamos,425,word,2,True,3,0.7510128021240234,1,
R2363,anreré,426,word,1,True,3,0.7390031814575195,2,
R2363,charlaré,427,word,2,True,3,1.4158751964569092,1,
R2363,focarías,428,word,2,False,3,0.848984956741333,2,
R2363,besará,429,word,2,True,3,0.8299479484558105,1,
R2363,tuplirías,430,word,1,True,3,0.8478991985321045,2,
R2363,subiríamos,431,word,2,True,3,1.1240272521972656,1,
R2363,cumpliré,432,word,2,True,3,0.5520501136779785,1,
R2363,sauábamos,433,word,1,True,3,0.7550311088562012,2,
R2363,unirías,434,word,1,False,3,1.2589082717895508,1,
R2363,cetará,435,word,1,True,3,3.7681028842926025,2,
R2363,partiremos,436,word,2,True,3,1.1270580291748047,1,
R2363,imirías,437,word,1,True,3,7.652895927429199,2,
R2363,lachían,438,word,1,True,3,4.828722953796387,2,
R2363,casaban,439,word,2,True,3,1.2568492889404297,1,
R2363,luntía,440,word,1,True,3,1.1029472351074219,2,
R2363,luntían,441,word,1,True,3,0.7331228256225586,2,
R2363,comerá,442,word,2,True,3,1.074030876159668,1,
R2363,bimarán,443,word,1,True,3,0.8270149230957031,2,
R2363,bailaría,444,word,2,True,3,1.6878929138183594,1,
R2363,cefleremos,445,word,1,True,3,0.766791820526123,2,
R2363,bimaría,446,word,1,True,3,0.752072811126709,2,
R2363,formaría,447,word,2,True,3,1.2768819332122803,1,
R2363,bruvías,448,word,1,True,3,1.1749529838562012,2,
R2363,sumaría,449,word,2,True,3,1.1047990322113037,1,
R2363,cubrirías,450,word,2,True,3,0.9560608863830566,1,
R2363,anreremos,451,word,1,True,3,0.6638858318328857,2,
R2363,sindaría,452,word,1,True,3,0.6232051849365234,2,
R2363,cubriremos,453,word,2,True,3,1.0790002346038818,1,
R2363,ciperá,454,word,1,True,3,0.7179141044616699,2,
R2363,ritía,455,word,1,True,3,1.1718440055847168,2,
R2363,rotará,456,word,2,True,3,0.697052001953125,1,
R2363,quemaría,457,word,2,True,3,0.8209888935089111,1,
R2363,rondaba,458,word,2,True,3,0.9798972606658936,1,
R2363,casará,459,word,2,True,3,0.6031491756439209,1,
R2363,cetaré,460,word,1,True,3,0.7289443016052246,2,
R2363,ciperíamos,461,word,1,True,3,0.7609949111938477,2,
R2363,morderíamos,462,word,2,True,3,1.0500950813293457,1,
R2363,hondería,463,word,1,True,3,0.9518909454345703,2,
R2363,anrería,464,word,1,True,3,0.9060389995574951,2,
R2363,vultábamos,465,word,1,True,3,0.912132978439331,2,
R2363,retará,466,word,2,True,3,2.77498722076416,1,
R2363,cumplirás,467,word,2,True,3,2.8679239749908447,1,
R2363,meterían,468,word,2,True,3,2.7259788513183594,1,
R2363,cortarías,469,word,2,True,4,0.9579648971557617,1,
R2363,seserían,470,word,1,True,4,1.2640101909637451,2,
R2363,sauaban,471,word,1,True,4,0.6240170001983643,2,
R2363,nadarías,472,word,2,True,4,0.7570700645446777,1,
R2363,luntirán,473,word,1,True,4,0.7568693161010742,2,
R2363,ritías,474,word,1,True,4,0.9361190795898438,2,
R2363,rotaríamos,475,word,2,True,4,1.0560760498046875,1,
R2363,cortaremos,476,word,2,True,4,0.8047161102294922,1,
R2363,cortarían,477,word,2,True,4,3.688074827194214,1,
R2363,eplarían,478,word,1,True,4,0.6044332981109619,2,
R2363,comía,479,word,2,True,4,0.5678360462188721,1,
R2363,poreremos,480,word,1,True,4,0.8581180572509766,2,
R2363,bruviré,481,word,1,True,4,0.7120327949523926,2,
R2363,ceflían,482,word,1,True,4,1.2049059867858887,2,
R2363,partirías,483,word,2,True,4,0.760951042175293,1,
R2363,besabas,484,word,2,True,4,0.7979319095611572,1,
R2363,cenaba,485,word,2,True,4,0.8087911605834961,1,
R2363,burrarás,486,word,1,True,4,0.7680628299713135,2,
R2363,tuplirían,487,word,1,True,4,0.6940181255340576,2,
R2363,faltaremos,488,word,2,True,4,1.0528910160064697,1,
R2363,subiremos,489,word,2,True,4,0.9071149826049805,1,
R2363,imíamos,490,word,1,True,4,0.8288378715515137,2,
R2363,luchabas,491,word,1,False,4,2.542067766189575,1,
R2363,faltaré,492,word,2,True,4,2.1361889839172363,1,
R2363,vultarás,493,word,1,True,4,1.8670871257781982,2,
R2363,rondaré,494,word,2,True,4,0.664017915725708,1,
R2363,quemábamos,495,word,2,True,4,2.7107841968536377,1,
R2363,charlabas,496,word,2,True,4,1.2000038623809814,1,
R2363,focabas,497,word,2,False,4,0.6271600723266602,2,
R2363,frindían,498,word,1,True,4,1.6231179237365723,2,
R2363,someremos,499,word,1,True,4,3.7129616737365723,2,
R2363,rimará,500,word,1,False,4,3.284994125366211,1,
R2363,obrarías,501,word,1,False,4,0.18989872932434082,1,
R2363,rimábamos,502,word,1,False,4,1.4358978271484375,1,
R2363,fundirían,503,word,1,False,4,1.0449459552764893,1,
R2363,lorgará,504,word,1,True,4,1.5539610385894775,2,
R2363,retaría,505,word,2,True,4,2.5570077896118164,1,
R2363,comeríamos,506,word,2,True,4,0.9029648303985596,1,
R2363,unirá,507,word,2,True,4,0.6899919509887695,1,
R2363,cortarán,508,word,2,True,4,1.7999629974365234,1,
R2363,runabas,509,word,1,True,4,3.3568968772888184,2,
R2363,sindarías,510,word,1,True,4,0.9669301509857178,2,
R2363,zusarías,511,word,1,True,4,0.8339488506317139,2,
R2363,faltarás,512,word,2,True,4,0.7551209926605225,1,
R2363,charlaba,513,word,2,True,4,0.6719260215759277,1,
R2363,quijaban,514,word,1,True,4,1.061021089553833,2,
R2363,charlarían,515,word,2,True,4,0.7840220928192139,1,
R2363,cisaré,516,word,1,True,4,1.3498539924621582,2,
R2363,jurarán,517,word,2,True,4,1.5498061180114746,1,
R2363,tujirán,518,word,1,True,4,1.8904800415039062,2,
R2363,cumplirían,519,word,2,True,4,0.8827271461486816,1,
R2363,nadará,520,word,2,True,4,1.823983907699585,1,
R2363,cederá,521,word,2,True,4,1.8279926776885986,1,
R2363,obraríamos,522,word,1,False,4,1.1791679859161377,1,
R2363,sesía,523,word,1,True,4,0.7480051517486572,2,
R2363,cenarán,524,word,2,True,4,4.842165946960449,1,
R2363,rayábamos,525,word,2,True,4,0.7029592990875244,1,
R2363,temería,526,word,2,True,4,0.8489501476287842,1,
R2363,mertaría,527,word,1,True,4,2.1919443607330322,2,
R2363,lorgaban,528,word,1,True,4,1.0810048580169678,2,
R2363,lailarán,529,word,1,True,4,1.0069670677185059,2,
R2363,rimaremos,530,word,1,False,4,3.68412184715271,1,
R2363,faltaba,531,word,2,True,4,0.9020900726318359,1,
R2363,lucharíamos,532,word,2,True,4,0.9580118656158447,1,
R2363,bruvíamos,533,word,1,True,4,0.5940639972686768,2,
R2363,bigaban,534,word,1,True,4,1.3320508003234863,2,
R2363,morderé,535,word,2,True,4,3.3370230197906494,1,
R2363,comerás,536,word,2,True,4,0.6259052753448486,1,
R2363,ceterían,537,word,1,True,4,0.7459428310394287,2,
R2363,rotarían,538,word,2,True,4,0.7870550155639648,1,
R2363,focaremos,539,word,2,False,4,0.8190357685089111,2,
R2363,obraría,540,word,1,False,4,0.649864912033081,1,
R2363,correrán,541,word,2,True,4,0.7211320400238037,1,
R2363,arderás,542,word,2,True,4,0.9638912677764893,1,
R2363,cumpliremos,543,word,2,True,4,1.803807020187378,1,
R2363,lacherás,544,word,1,True,4,0.879044771194458,2,
R2363,rondarás,545,word,2,True,4,2.4189300537109375,1,
R2363,gacharías,546,word,1,True,4,2.9331021308898926,2,
R2363,lameré,547,word,2,True,4,0.8389890193939209,1,
R2363,cenaría,548,word,2,True,4,0.6599259376525879,1,
R2363,monceríamos,549,word,1,True,4,3.026397943496704,2,
R2363,seseremos,550,word,1,True,4,1.5689928531646729,2,
R2363,partirían,551,word,1,False,4,0.34007716178894043,1,
R2363,cichías,552,word,1,True,4,1.0898950099945068,2,
R2363,rondabas,553,word,1,False,4,5.680233001708984,1,
R2363,ceterán,554,word,1,True,4,2.840045928955078,2,
R2363,gruñirás,555,word,2,True,4,1.3610470294952393,1,
R2363,ceflías,556,word,1,True,4,1.7009098529815674,2,
R2363,fanerá,557,word,1,True,4,0.8720541000366211,2,
R2363,obrarían,558,word,1,False,4,0.6921939849853516,1,
R2363,nadaré,559,word,2,True,4,1.3349640369415283,1,
R2363,cubrirán,560,word,2,True,4,0.5777759552001953,1,
R2363,rimaríamos,561,word,1,False,4,2.57893705368042,1,
R2363,nadaba,562,word,2,True,4,0.6111049652099609,1,
R2363,mardirán,563,word,1,True,4,0.9538450241088867,2,
R2363,ciperás,564,word,1,True,4,0.7818739414215088,2,
R2363,sindaban,565,word,1,True,4,0.7460618019104004,2,
R2363,ceflerías,566,word,1,True,4,1.718890905380249,2,
R2363,besarías,567,word,2,True,4,0.9562242031097412,1,
R2363,subiría,568,word,2,True,4,0.8741021156311035,1,
R2363,honderemos,569,word,1,True,4,0.8279461860656738,2,
R2363,correría,570,word,2,True,4,1.0180809497833252,1,
R2363,fundía,571,word,1,False,4,4.696767091751099,1,
R2363,formarían,572,word,2,True,4,1.2650041580200195,1,
R2363,cortaré,573,word,2,True,4,0.7878148555755615,1,
R2363,prendíamos,574,word,2,True,4,1.2521240711212158,1,
R2363,somías,575,word,1,True,4,0.8049101829528809,2,
R2363,rotaba,576,word,2,True,4,0.7235591411590576,1,
R2363,sufrirías,577,word,2,True,4,1.9159018993377686,1,
R2363,cosían,578,word,2,True,4,0.5980370044708252,1,
R2363,galaban,579,word,1,True,4,0.8935010433197021,2,
R2363,meterás,580,word,2,True,4,0.9130527973175049,1,
R2363,barrerían,581,word,2,True,4,0.9601290225982666,1,
R2363,maftaría,582,word,1,True,4,0.8689279556274414,2,
R2363,cedíamos,583,word,1,False,4,2.4199938774108887,1,
R2363,frinderías,584,word,1,True,4,0.8151021003723145,2,
R2363,rondaríamos,585,word,2,True,4,1.3179519176483154,1,
R2363,cuarrirías,586,word,1,True,4,2.278895854949951,2,
R2363,quemaré,587,word,2,True,4,2.6689610481262207,1,
R2363,bimará,588,word,1,True,4,1.175920009613037,2,
R2363,rayaremos,589,word,2,True,4,0.886854887008667,1,
R2363,casabas,590,word,2,True,4,1.3413259983062744,1,
R2363,prenderemos,591,word,2,True,4,1.1449673175811768,1,
R2363,lamerás,592,word,2,True,4,1.150899887084961,1,
R2363,sumarán,593,word,2,True,4,2.1519949436187744,1,
R2363,maftábamos,594,word,1,True,4,0.7510552406311035,2,
R2363,formaré,595,word,2,True,4,1.445976734161377,1,
R2363,runaban,596,word,1,True,4,0.9639749526977539,2,
R2363,bimaré,597,word,1,True,4,0.7389061450958252,2,
R2363,cuarrirá,598,word,1,True,4,1.9310328960418701,2,
R2363,barrerás,599,word,2,True,4,0.7589931488037109,1,
R2363,tupliríamos,600,word,1,True,4,0.9060659408569336,2,
R2363,pavará,601,word,1,True,4,0.8779468536376953,2,
R2363,tuplirá,602,word,1,True,4,0.9590001106262207,2,
R2363,cetaremos,603,word,1,True,4,0.761023998260498,2,
R2363,cumplíamos,604,word,2,True,4,0.7734341621398926,1,
R2363,zusaban,605,word,1,True,4,0.6798350811004639,2,
R2363,cichirían,606,word,1,True,4,0.8098900318145752,2,
R2363,burraremos,607,word,1,True,4,1.0829927921295166,2,
R2363,formaríamos,608,word,2,True,4,1.021968126296997,1,
R2363,luchará,609,word,2,True,4,0.9548859596252441,1,
R2363,maftarás,610,word,1,True,4,0.7644360065460205,2,
R2363,lucharé,611,word,2,True,4,1.6938939094543457,1,
R2363,anreríamos,612,word,1,True,4,1.2291440963745117,2,
R2363,morderías,613,word,2,True,4,3.937106132507324,1,
R2363,focaba,614,word,2,False,4,1.1840229034423828,2,
R2363,cichirá,615,word,1,True,4,1.266937255859375,2,
R2363,lamíamos,616,word,2,True,4,3.7820188999176025,1,
R2363,bigabas,617,word,1,True,4,0.8210611343383789,2,
R2363,meteré,618,word,2,True,4,6.7333738803863525,1,
R2363,morderemos,619,word,2,True,4,0.8790152072906494,1,
R2363,frinderás,620,word,1,True,4,2.812077283859253,2,
R2363,galarán,621,word,1,True,4,1.0199790000915527,2,
R2363,mertarían,622,word,1,True,4,1.0819799900054932,2,
R2363,sindaba,623,word,1,True,4,0.699042797088623,2,
R2363,partíamos,624,word,2,True,4,2.0350379943847656,1,
R2363,cubriríamos,625,word,2,True,5,2.235948085784912,1,
R2363,gruñían,626,word,2,True,5,2.2589638233184814,1,
R2363,someré,627,word,1,True,5,1.0778779983520508,2,
R2363,somerá,628,word,1,True,5,1.5609650611877441,2,
R2363,sauaría,629,word,1,True,5,1.490772008895874,2,
R2363,cuarrías,630,word,1,True,5,1.0089280605316162,2,
R2363,besaría,631,word,2,True,5,1.3679649829864502,1,
R2363,rotarás,632,word,2,True,5,0.5769360065460205,1,
R2363,subías,633,word,2,True,5,0.6548058986663818,1,
R2363,lachería,634,word,1,True,5,0.7228529453277588,2,
R2363,bailabas,635,word,2,True,5,0.7590460777282715,1,
R2363,bigarán,636,word,1,True,5,1.3973100185394287,2,
R2363,eplará,637,word,1,True,5,0.772831916809082,2,
R2363,coserán,638,word,1,False,5,0.924152135848999,1,
R2363,coserás,639,word,1,False,5,1.031630039215088,1,
R2363,pavarían,640,word,1,True,5,0.72784423828125,2,
R2363,cosíamos,641,word,1,False,5,3.281338930130005,1,
R2363,jurarás,642,word,2,True,5,2.703246831893921,1,
R2363,pactábamos,643,word,1,False,5,3.3082492351531982,1,
R2363,mordíamos,644,word,2,True,5,0.8484010696411133,1,
R2363,charlarán,645,word,2,True,5,1.231339931488037,1,
R2363,tupliré,646,word,1,True,5,1.7489187717437744,2,
R2363,mardirás,647,word,1,True,5,1.219270944595337,2,
R2363,zusaré,648,word,1,True,5,0.613922119140625,2,
R2363,cenaré,649,word,2,True,5,0.9582638740539551,1,
R2363,partiría,650,word,2,True,5,1.412235975265503,1,
R2363,casarán,651,word,2,True,5,0.8061389923095703,1,
R2363,frinderé,652,word,1,True,5,1.748351812362671,2,
R2363,unías,653,word,2,True,5,1.5170550346374512,1,
R2363,partiré,654,word,2,True,5,1.229010820388794,1,
R2363,nadarás,655,word,2,True,5,0.8141613006591797,1,
R2363,uniríamos,656,word,2,True,5,1.0469639301300049,1,
R2363,rimaba,657,word,1,False,5,1.123208999633789,1,
R2363,sesíamos,658,word,2,False,5,2.378173828125,2,
R2363,bruviría,659,word,1,True,5,0.6290302276611328,2,
R2363,mertaré,660,word,1,True,5,1.869999647140503,2,
R2363,cuarriría,661,word,1,True,5,1.8021957874298096,2,
R2363,galábamos,662,word,1,True,5,1.2659668922424316,2,
R2363,rayarás,663,word,2,True,5,2.146101713180542,1,
R2363,ceterás,664,word,1,True,5,1.7255022525787354,2,
R2363,luchaba,665,word,2,True,5,0.5858361721038818,1,
R2363,ceflerá,666,word,1,True,5,0.957007884979248,2,
R2363,quijarás,667,word,1,True,5,0.7958457469940186,2,
R2363,partías,668,word,2,True,5,1.0480546951293945,1,
R2363,sindabas,669,word,1,True,5,0.8251190185546875,2,
R2363,lachía,670,word,1,True,5,1.2198400497436523,2,
R2363,quemará,671,word,2,True,5,0.9578049182891846,1,
R2363,rotaremos,672,word,2,True,5,1.151078224182129,1,
R2363,burrarían,673,word,1,True,5,1.0679590702056885,2,
R2363,faneré,674,word,1,True,5,0.7908070087432861,2,
R2363,casaríamos,675,word,2,True,5,0.7850799560546875,1,
R2363,lacherán,676,word,1,True,5,0.8699100017547607,2,
R2363,corría,677,word,2,True,5,1.0108718872070312,1,
R2363,quijabas,678,word,1,True,5,0.6290748119354248,2,
R2363,charlaban,679,word,2,True,5,1.0059528350830078,1,
R2363,frindía,680,word,1,True,5,0.7270140647888184,2,
R2363,lacherá,681,word,1,True,5,0.8480970859527588,2,
R2363,rayaba,682,word,2,True,5,1.0049638748168945,1,
R2363,porían,683,word,1,True,5,1.9280118942260742,2,
R2363,imían,684,word,1,True,5,2.807774066925049,2,
R2363,comíamos,685,word,2,True,5,0.8139100074768066,1,
R2363,sumaremos,686,word,2,True,5,0.8308959007263184,1,
R2363,pactaría,687,word,1,False,5,1.278012990951538,1,
R2363,ciperán,688,word,1,True,5,1.8640310764312744,2,
R2363,bailarían,689,word,2,True,5,1.4282171726226807,1,
R2363,retabas,690,word,2,True,5,1.212087869644165,1,
R2363,seserá,691,word,1,True,5,0.8220696449279785,2,
R2363,cedían,692,word,2,True,5,1.501852035522461,1,
R2363,cisaban,693,word,1,True,5,4.370937824249268,2,
R2363,runábamos,694,word,2,False,5,3.636883020401001,2,
R2363,riteré,695,word,1,True,5,1.562946081161499,2,
R2363,nadarían,696,word,2,True,5,1.1435682773590088,1,
R2363,quemarán,697,word,2,True,5,1.3119430541992188,1,
R2363,coseré,698,word,1,False,5,1.8102400302886963,1,
R2363,obrarán,699,word,1,False,5,0.9271359443664551,1,
R2363,charlarás,700,word,2,True,5,0.6750330924987793,1,
R2363,lucharías,701,word,2,True,5,0.8051509857177734,1,
R2363,burraban,702,word,1,True,5,0.8599059581756592,2,
R2363,partían,703,word,2,True,5,1.7959167957305908,1,
R2363,uníamos,704,word,2,True,5,1.6419878005981445,1,
R2363,imía,705,word,1,True,5,0.9113578796386719,2,
R2363,metería,706,word,2,True,5,1.146089792251587,1,
R2363,bimaban,707,word,1,True,5,4.662145137786865,2,
R2363,lorgaré,708,word,2,False,5,0.6569287776947021,2,
R2363,cuarría,709,word,1,True,5,1.4527637958526611,2,
R2363,quijaba,710,word,1,True,5,0.9350788593292236,2,
R2363,somíamos,711,word,1,True,5,1.054013967514038,2,
R2363,maftaban,712,word,1,True,5,0.7138040065765381,2,
R2363,lailaba,713,word,1,True,5,1.0080149173736572,2,
R2363,rimaré,714,word,1,False,5,0.3310120105743408,1,
R2363,mordía,715,word,2,True,5,1.8169658184051514,1,
R2363,quijaría,716,word,1,True,5,0.7008898258209229,2,
R2363,toserán,717,word,2,True,5,1.1499531269073486,1,
R2363,subiré,718,word,2,True,5,1.077052116394043,1,
R2363,seserías,719,word,1,True,5,1.22100830078125,2,
R2363,faltarían,720,word,2,True,5,1.2230360507965088,1,
R2363,bailarías,721,word,2,True,5,1.0287671089172363,1,
R2363,coseremos,722,word,1,False,5,0.8829660415649414,1,
R2363,temeríamos,723,word,2,True,5,2.369103193283081,1,
R2363,comería,724,word,2,True,5,1.1529231071472168,1,
R2363,luntiríamos,725,word,1,True,5,5.841909885406494,2,
R2363,cichirán,726,word,1,True,5,0.6899240016937256,2,
R2363,mertarías,727,word,1,True,5,1.775015115737915,2,
R2363,charlábamos,728,word,2,True,5,0.903900146484375,1,
R2363,jurarías,729,word,2,True,5,1.2229080200195312,1,
R2363,sufrirían,730,word,2,True,5,0.9898600578308105,1,
R2363,tosería,731,word,2,True,5,1.5771558284759521,1,
R2363,nadaban,732,word,2,True,5,0.5748059749603271,1,
R2363,cichíamos,733,word,1,True,5,0.8311038017272949,2,
R2363,chanrará,734,word,1,True,5,0.9633159637451172,2,
R2363,cumplirán,735,word,2,True,5,0.7839648723602295,1,
R2363,gruñirá,736,word,2,True,5,0.7969210147857666,1,
R2363,temerá,737,word,2,True,5,0.8740427494049072,1,
R2363,cetarán,738,word,1,True,5,0.7110579013824463,2,
R2363,rotabas,739,word,2,True,5,0.7130031585693359,1,
R2363,besábamos,740,word,2,True,5,0.6420831680297852,1,
R2363,pactaré,741,word,1,False,5,0.7430028915405273,1,
R2363,imirían,742,word,1,True,5,1.0339181423187256,2,
R2363,fanían,743,word,1,True,5,1.247786045074463,2,
R2363,quijarías,744,word,1,True,5,0.8959980010986328,2,
R2363,subirán,745,word,2,True,5,0.7050690650939941,1,
R2363,chanrábamos,746,word,1,True,5,1.0979251861572266,2,
R2363,sumarás,747,word,2,True,5,1.285973072052002,1,
R2363,lorgarás,748,word,2,False,5,1.7682068347930908,2,
R2363,gachaba,749,word,1,True,5,1.9639639854431152,2,
R2363,imiré,750,word,1,True,5,0.6268868446350098,2,
R2363,cortábamos,751,word,2,True,5,1.5220139026641846,1,
R2363,hondíamos,752,word,1,True,5,1.940993070602417,2,
R2363,luntiré,753,word,1,True,5,1.1258909702301025,2,
R2363,riterá,754,word,1,True,5,0.7512609958648682,2,
R2363,chanrarás,755,word,1,True,5,0.7489829063415527,2,
R2363,vultarías,756,word,1,True,5,0.8171188831329346,2,
R2363,narrarían,757,word,2,True,5,0.7890629768371582,1,
R2363,sumabas,758,word,2,True,5,1.2319350242614746,1,
R2363,frinderíamos,759,word,1,True,5,0.8741240501403809,2,
R2363,porías,760,word,1,True,5,0.8260281085968018,2,
R2363,cubriré,761,word,2,True,5,0.7708258628845215,1,
R2363,fundiría,762,word,1,False,5,1.2939598560333252,1,
R2363,faníamos,763,word,1,True,5,7.086120128631592,2,
R2363,imías,764,word,1,True,5,1.0658957958221436,2,
R2363,cetía,765,word,1,True,5,2.54001784324646,2,
R2363,imirá,766,word,1,True,5,1.229262113571167,2,
R2363,sauaremos,767,word,1,True,5,2.1270699501037598,2,
R2363,bimabas,768,word,1,True,5,2.3388350009918213,2,
R2363,cetarías,769,word,1,True,5,2.522162914276123,2,
R2363,somía,770,word,1,True,5,1.0018229484558105,2,
R2363,vendías,771,word,2,True,5,0.6478431224822998,1,
R2363,bimábamos,772,word,2,False,5,0.5199761390686035,2,
R2363,cortaríamos,773,word,2,True,5,0.7010390758514404,1,
R2363,monceré,774,word,1,True,5,3.4159936904907227,2,
R2363,barrería,775,word,2,True,5,0.9580869674682617,1,
R2363,cisarían,776,word,1,True,5,1.1278529167175293,2,
R2363,lorgábamos,777,word,1,True,5,1.5040678977966309,2,
R2363,faneríamos,778,word,1,True,5,1.1107630729675293,2,
R2363,lacherías,779,word,1,True,5,1.0209369659423828,2,
R2363,rondaremos,780,word,2,True,5,0.7999982833862305,1,
R2363,juraban,781,word,2,True,6,0.8510758876800537,1,
R2363,tosían,782,word,2,True,6,0.657020092010498,1,
R2363,fundirías,783,word,1,False,6,0.7480549812316895,1,
R2363,cortaba,784,word,2,True,6,1.0240681171417236,1,
R2363,zusaríamos,785,word,1,True,6,0.7648570537567139,2,
R2363,burrarías,786,word,1,True,6,0.8191490173339844,2,
R2363,bailaba,787,word,2,True,6,0.7379791736602783,1,
R2363,poreré,788,word,1,True,6,0.6379880905151367,2,
R2363,tujiría,789,word,1,True,6,0.754133939743042,2,
R2363,cederíamos,790,word,1,False,6,0.6998348236083984,1,
R2363,vendían,791,word,2,True,6,0.5178720951080322,1,
R2363,metían,792,word,2,True,6,0.740321159362793,1,
R2363,imirán,793,word,1,True,6,0.6510207653045654,2,
R2363,obraré,794,word,1,False,6,0.5878589153289795,1,
R2363,cumplían,795,word,2,True,6,0.6131060123443604,1,
R2363,mordías,796,word,2,True,6,0.8699741363525391,1,
R2363,eplábamos,797,word,1,True,6,0.6940619945526123,2,
R2363,mertaban,798,word,1,True,6,0.8991050720214844,2,
R2363,arderían,799,word,2,True,6,1.1640350818634033,1,
R2363,cisarás,800,word,1,True,6,0.8368499279022217,2,
R2363,maftará,801,word,1,True,6,0.8930888175964355,2,
R2363,meterán,802,word,2,True,6,0.6037700176239014,1,
R2363,runarían,803,word,1,True,6,1.0311222076416016,2,
R2363,obraremos,804,word,1,False,6,0.8599350452423096,1,
R2363,quemarás,805,word,2,True,6,0.8535091876983643,1,
R2363,rotábamos,806,word,2,True,6,0.8779308795928955,1,
R2363,morderás,807,word,2,True,6,0.7351679801940918,1,
R2363,luntiremos,808,word,1,True,6,0.6329081058502197,2,
R2363,tujía,809,word,1,True,6,0.5989477634429932,2,
R2363,fundíamos,810,word,1,False,6,0.7460858821868896,1,
R2363,sufrirá,811,word,2,True,6,0.9561049938201904,1,
R2363,bigaría,812,word,1,True,6,0.8207659721374512,2,
R2363,anrerían,813,word,1,True,6,4.0340821743011475,2,
R2363,narrarías,814,word,2,True,6,0.6327700614929199,1,
R2363,correrá,815,word,2,True,6,1.0159380435943604,1,
R2363,comeré,816,word,2,True,6,1.5192968845367432,1,
R2363,arderíamos,817,word,2,True,6,1.4238600730895996,1,
R2363,focarás,818,word,2,False,6,0.9690530300140381,2,
R2363,eplaba,819,word,1,True,6,0.6590931415557861,2,
R2363,ceflíamos,820,word,1,True,6,2.8219220638275146,2,
R2363,cenaremos,821,word,2,True,6,0.8330631256103516,1,
R2363,narraríamos,822,word,2,True,6,1.6119518280029297,1,
R2363,quemaban,823,word,2,True,6,0.6848790645599365,1,
R2363,quijará,824,word,1,True,6,0.6459949016571045,2,
R2363,cosía,825,word,2,True,6,2.4679999351501465,1,
R2363,metías,826,word,2,True,6,2.1111159324645996,1,
R2363,retarías,827,word,1,False,6,1.6630828380584717,1,
R2363,cichirías,828,word,1,True,6,0.7611610889434814,2,
R2363,ceflería,829,word,1,True,6,0.8330669403076172,2,
R2363,prenderé,830,word,2,True,6,0.7504749298095703,1,
R2363,focaré,831,word,2,False,6,1.9960951805114746,2,
R2363,cichiría,832,word,1,True,6,0.7810201644897461,2,
R2363,lamerá,833,word,2,True,6,4.186241865158081,1,
R2363,sesías,834,word,1,True,6,0.694943904876709,2,
R2363,anrerías,835,word,1,True,6,5.052184104919434,2,
R2363,quijarán,836,word,1,True,6,0.6889781951904297,2,
R2363,cenará,837,word,2,True,6,0.7788040637969971,1,
R2363,ciperé,838,word,1,True,6,0.7102198600769043,2,
R2363,cichiré,839,word,1,True,6,3.052828073501587,2,
R2363,besarás,840,word,2,True,6,1.0839622020721436,1,
R2363,cisará,841,word,1,True,6,1.1878480911254883,2,
R2363,gachará,842,word,1,True,6,1.0089669227600098,2,
R2363,fundirán,843,word,1,False,6,0.6949319839477539,1,
R2363,metíamos,844,word,2,True,6,0.7287991046905518,1,
R2363,tujiremos,845,word,1,True,6,0.6600949764251709,2,
R2363,sumábamos,846,word,2,True,6,0.8093061447143555,1,
R2363,tujirás,847,word,1,True,6,0.6049098968505859,2,
R2363,sufrirán,848,word,2,True,6,0.7908883094787598,1,
R2363,cipían,849,word,1,True,6,0.6550908088684082,2,
R2363,pavábamos,850,word,1,True,6,3.1741042137145996,2,
R2363,eplaré,851,word,1,True,6,0.7850449085235596,2,
R2363,lorgaba,852,word,1,True,6,1.4498398303985596,2,
R2363,temíamos,853,word,2,True,6,0.9719510078430176,1,
R2363,quijaremos,854,word,1,True,6,1.860079050064087,2,
R2363,bailarán,855,word,2,True,6,0.7540309429168701,1,
R2363,burraré,856,word,1,True,6,0.8498432636260986,2,
R2363,gachábamos,857,word,1,True,6,2.776029109954834,2,
R2363,cetarían,858,word,1,True,6,0.7179749011993408,2,
R2363,jurabas,859,word,2,True,6,0.7259988784790039,1,
R2363,sindábamos,860,word,1,True,6,0.5879161357879639,2,
R2363,ciperían,861,word,1,True,6,0.6319839954376221,2,
R2363,eplaban,862,word,1,True,6,0.5730888843536377,2,
R2363,eplaríamos,863,word,1,True,6,0.6187658309936523,2,
R2363,ceflerás,864,word,1,True,6,0.8228609561920166,2,
R2363,vultarían,865,word,1,True,6,0.7049469947814941,2,
R2363,gruñía,866,word,2,True,6,0.7970790863037109,1,
R2363,burraríamos,867,word,1,True,6,0.6680421829223633,2,
R2363,barreríamos,868,word,2,True,6,0.6789507865905762,1,
R2363,bruvirán,869,word,1,True,6,0.6389942169189453,2,
R2363,cortarás,870,word,2,True,6,0.6109488010406494,1,
R2363,lorgarían,871,word,1,True,6,1.1239650249481201,2,
R2363,uniré,872,word,2,True,6,0.712050199508667,1,
R2363,luntirían,873,word,1,True,6,0.6888980865478516,2,
R2363,rimarían,874,word,1,False,6,1.0899991989135742,1,
R2363,morderán,875,word,2,True,6,0.6449909210205078,1,
R2363,lucharemos,876,word,2,True,6,0.7969541549682617,1,
R2363,sindaríamos,877,word,1,True,6,0.6679220199584961,2,
R2363,zusaría,878,word,1,True,6,0.6520500183105469,2,
R2363,tupliría,879,word,1,True,6,0.905040979385376,2,
R2363,eplaremos,880,word,1,True,6,0.6150200366973877,2,
R2363,riteremos,881,word,1,True,6,0.5942380428314209,2,
R2363,maftarían,882,word,1,True,6,0.9980490207672119,2,
R2363,retarás,883,word,1,False,6,1.6600499153137207,1,
R2363,pactaba,884,word,1,False,6,0.6318418979644775,1,
R2363,tosía,885,word,2,True,6,0.8168070316314697,1,
R2363,pavarás,886,word,1,True,6,0.7080788612365723,2,
R2363,somerían,887,word,1,True,6,0.6949000358581543,2,
R2363,mardirías,888,word,1,True,6,1.803873062133789,2,
R2363,cosería,889,word,2,True,6,2.2590250968933105,1,
R2363,sumarías,890,word,2,True,6,0.9996869564056396,1,
R2363,tupliremos,891,word,1,True,6,0.7169029712677002,2,
R2363,subirías,892,word,2,True,6,0.8971011638641357,1,
R2363,cuarriré,893,word,1,True,6,0.7758138179779053,2,
R2363,sauaríamos,894,word,1,True,6,0.7887840270996094,2,
R2363,sufrían,895,word,2,True,6,1.1631760597229004,1,
R2363,mertaba,896,word,1,True,6,1.080061912536621,2,
R2363,cichían,897,word,1,True,6,1.1348488330841064,2,
R2363,cipías,898,word,1,True,6,0.6990132331848145,2,
R2363,rondaban,899,word,2,True,6,1.8887929916381836,1,
R2363,formarás,900,word,2,True,6,1.3451299667358398,1,
R2363,arderá,901,word,2,True,6,0.6248540878295898,1,
R2363,luntías,902,word,1,True,6,1.710859775543213,2,
R2363,honderás,903,word,1,True,6,2.674017906188965,2,
R2363,pavaban,904,word,1,True,6,0.8838610649108887,2,
R2363,sauaré,905,word,1,True,6,0.8028991222381592,2,
R2363,quijábamos,906,word,1,True,6,2.437278985977173,2,
R2363,bigará,907,word,1,True,6,0.7639920711517334,2,
R2363,cederemos,908,word,2,True,6,1.236969232559204,1,
R2363,quijaríamos,909,word,1,True,6,1.5299220085144043,2,
R2363,lailábamos,910,word,1,True,6,1.3849761486053467,2,
R2363,vultaban,911,word,1,True,6,0.9488177299499512,2,
R2363,lorgarías,912,word,1,True,6,1.0760931968688965,2,
R2363,galará,913,word,1,True,6,1.0168640613555908,2,
R2363,cisarías,914,word,1,True,6,1.1089770793914795,2,
R2363,fundirás,915,word,1,False,6,3.8010380268096924,1,
R2363,moncería,916,word,1,True,6,0.6560521125793457,2,
R2363,ritíamos,917,word,1,True,6,0.7000381946563721,2,
R2363,ardíamos,918,word,2,True,6,0.8430690765380859,1,
R2363,lamías,919,word,2,True,6,0.7579820156097412,1,
R2363,ceflía,920,word,1,True,6,0.7300119400024414,2,
R2363,lorgabas,921,word,1,True,6,0.7831540107727051,2,
R2363,bimarás,922,word,1,True,6,0.6468920707702637,2,
R2363,ardías,923,word,2,True,6,0.8479020595550537,1,
R2363,correremos,924,word,2,True,6,0.8002738952636719,1,
R2363,formaban,925,word,2,True,6,1.4570190906524658,1,
R2363,bigarás,926,word,1,True,6,0.7008471488952637,2,
R2363,moncían,927,word,1,True,6,0.5829968452453613,2,
R2363,anría,928,word,1,True,6,0.5829691886901855,2,
R2363,rayaban,929,word,2,True,6,0.8647918701171875,1,
R2363,quemarías,930,word,2,True,6,0.8730130195617676,1,
R2363,cetabas,931,word,1,True,6,0.691917896270752,2,
R2363,luntirá,932,word,1,True,6,0.7198770046234131,2,
R2363,rayará,933,word,2,True,6,0.683007001876831,1,
R2363,gachaban,934,word,1,True,6,1.530022144317627,2,
R2363,lailarían,935,word,1,True,6,0.6998727321624756,2,
R2363,runaría,936,word,1,True,6,1.0939929485321045,2,
R2363,maftarías,937,word,1,True,7,0.6610119342803955,2,
R2363,chanrarán,938,word,1,True,7,0.9359979629516602,2,
R2363,cetían,939,word,1,True,7,0.5701429843902588,2,
R2363,bruvía,940,word,1,True,7,0.569943904876709,2,
R2363,galaba,941,word,1,True,7,0.5259521007537842,2,
R2363,sauabas,942,word,1,True,7,0.5972580909729004,2,
R2363,cetíamos,943,word,1,True,7,0.5869021415710449,2,
R2363,formaba,944,word,2,True,7,0.591027021408081,1,
R2363,runaré,945,word,2,False,7,2.50288987159729,2,
R2363,vultabas,946,word,1,True,7,0.6470019817352295,2,
R2363,obraba,947,word,1,False,7,0.07699108123779297,1,
R2363,moncía,948,word,1,True,7,2.312030792236328,2,
R2363,sindarían,949,word,1,True,7,0.6950128078460693,2,
R2363,sumarían,950,word,2,True,7,0.8410260677337646,1,
R2363,bailará,951,word,2,True,7,0.8130459785461426,1,
R2363,mertábamos,952,word,1,True,7,0.9091172218322754,2,
R2363,cubrirá,953,word,2,True,7,0.8550448417663574,1,
R2363,subían,954,word,2,True,7,0.6260840892791748,1,
R2363,venderé,955,word,1,False,7,1.2187459468841553,1,
R2363,pactará,956,word,1,False,7,0.6529409885406494,1,
R2363,vendíamos,957,word,2,True,7,1.163034200668335,1,
R2363,cisaremos,958,word,1,True,7,0.6280479431152344,2,
R2363,venderán,959,word,2,True,7,0.9450719356536865,1,
R2363,lailaríamos,960,word,1,True,7,0.8380641937255859,2,
R2363,rimarás,961,word,1,False,7,0.7201979160308838,1,
R2363,pactarás,962,word,1,False,7,1.214900016784668,1,
R2363,casarías,963,word,2,True,7,1.010045051574707,1,
R2363,barrerá,964,word,2,True,7,2.210010051727295,1,
R2363,besaba,965,word,2,True,7,0.6815798282623291,1,
R2363,zusabas,966,word,1,True,7,0.5670499801635742,2,
R2363,vultaríamos,967,word,1,True,7,0.6691751480102539,2,
R2363,mertará,968,word,1,True,7,0.5719339847564697,2,
R2363,galabas,969,word,1,True,7,2.215101957321167,2,
R2363,pactabas,970,word,1,False,7,1.7979228496551514,1,
R2363,burraba,971,word,1,True,7,1.2170350551605225,2,
R2363,faltaban,972,word,2,True,7,1.2500340938568115,1,
R2363,porerá,973,word,1,True,7,0.6419568061828613,2,
R2363,faltaríamos,974,word,2,True,7,0.792881965637207,1,
R2363,fanerán,975,word,1,True,7,0.7019503116607666,2,
R2363,toseré,976,word,2,True,7,0.945979118347168,1,
R2363,sufriríamos,977,word,2,True,7,1.5579230785369873,1,
R2363,seseríamos,978,word,1,True,7,2.2831368446350098,2,
R2363,gruñiré,979,word,2,True,7,1.7520010471343994,1,
R2363,anrerás,980,word,1,True,7,0.9558978080749512,2,
R2363,rayarán,981,word,2,True,7,0.6479628086090088,1,
R2363,cisábamos,982,word,1,True,7,0.6219289302825928,2,
R2363,unía,983,word,2,True,7,0.7994780540466309,1,
R2363,jurarían,984,word,2,True,7,1.1161470413208008,1,
R2363,mardiré,985,word,1,True,7,0.8948569297790527,2,
R2363,charlará,986,word,2,True,7,1.3160979747772217,1,
R2363,moncerá,987,word,1,True,7,0.5589370727539062,2,
R2363,subía,988,word,2,True,7,0.6660590171813965,1,
R2363,runarás,989,word,2,False,7,1.687100887298584,2,
R2363,mertaríamos,990,word,1,True,7,0.777376651763916,2,
R2363,bailarás,991,word,2,True,7,1.2770850658416748,1,
R2363,comían,992,word,2,True,7,0.7052111625671387,1,
R2363,ceteré,993,word,1,True,7,0.6588211059570312,2,
R2363,porerían,994,word,1,True,7,1.3851871490478516,2,
R2363,unirás,995,word,2,True,7,1.2641379833221436,1,
R2363,riterías,996,word,1,True,7,2.5261809825897217,2,
R2363,narrarás,997,word,2,True,7,1.5386571884155273,1,
R2363,riterás,998,word,1,True,7,0.7162387371063232,2,
R2363,vultarán,999,word,1,True,7,0.7480137348175049,2,
R2363,rondarán,1000,word,1,False,7,2.067349910736084,1,
R2363,imiríamos,1001,word,1,True,7,0.9622080326080322,2,
R2363,cenábamos,1002,word,2,True,7,0.7203419208526611,1,
R2363,temerían,1003,word,2,True,7,0.7934248447418213,1,
R2363,tuplían,1004,word,1,True,7,0.6742141246795654,2,
R2363,cuarriremos,1005,word,1,True,7,1.0712509155273438,2,
R2363,cubrirás,1006,word,2,True,7,1.2121849060058594,1,
R2363,besaríamos,1007,word,2,True,7,0.6171350479125977,1,
R2363,honderé,1008,word,1,True,7,0.6652810573577881,2,
R2363,galaríamos,1009,word,1,True,7,0.8742191791534424,2,
R2363,sauarían,1010,word,1,True,7,1.0972111225128174,2,
R2363,lucharían,1011,word,2,True,7,1.0253231525421143,1,
R2363,mardiremos,1012,word,1,True,7,0.6581640243530273,2,
R2363,rotaré,1013,word,2,True,7,1.000241994857788,1,
R2363,cipería,1014,word,1,True,7,0.5700869560241699,2,
R2363,zusarás,1015,word,1,True,7,0.6800141334533691,2,
R2363,somían,1016,word,1,True,7,0.9379351139068604,2,
R2363,poríamos,1017,word,1,True,7,0.6619081497192383,2,
R2363,besarán,1018,word,1,False,7,0.3520228862762451,1,
R2363,arderemos,1019,word,2,True,7,1.1168768405914307,1,
R2363,temían,1020,word,2,True,7,0.9389939308166504,1,
R2363,cetaría,1021,word,1,True,7,0.8040320873260498,2,
R2363,ceflerían,1022,word,1,True,7,0.736987829208374,2,
R2363,rimarán,1023,word,1,False,7,0.7849469184875488,1,
R2363,cenaban,1024,word,2,True,7,0.7401378154754639,1,
R2363,hondía,1025,word,1,True,7,0.6359350681304932,2,
R2363,casaba,1026,word,2,True,7,0.6549088954925537,1,
R2363,juraremos,1027,word,2,True,7,0.6690123081207275,1,
R2363,cumplirá,1028,word,2,True,7,0.7079107761383057,1,
R2363,sufríamos,1029,word,2,True,7,0.6319901943206787,1,
R2363,narrarán,1030,word,2,True,7,0.6249852180480957,1,
R2363,barría,1031,word,2,True,7,1.6548748016357422,1,
R2363,cederías,1032,word,2,True,7,1.6350820064544678,1,
R2363,tujirían,1033,word,1,True,7,0.8439459800720215,2,
R2363,tosías,1034,word,2,True,7,0.9059090614318848,1,
R2363,seserás,1035,word,1,True,7,0.7082650661468506,2,
R2363,lamería,1036,word,2,True,7,2.351799249649048,1,
R2363,ciperemos,1037,word,1,True,7,1.0461068153381348,2,
R2363,sauarías,1038,word,1,True,7,0.7902238368988037,2,
R2363,lorgarán,1039,word,1,True,7,1.4022438526153564,2,
R2363,narraba,1040,word,2,True,7,0.652979850769043,1,
R2363,juraría,1041,word,2,True,7,0.7239780426025391,1,
R2363,ceflerán,1042,word,1,True,7,2.1969516277313232,2,
R2363,coserías,1043,word,2,True,7,2.279125928878784,1,
R2363,galarías,1044,word,1,True,7,2.590019941329956,2,
R2363,cumplirías,1045,word,2,True,7,0.6271107196807861,1,
R2363,tosíamos,1046,word,2,True,7,1.9680390357971191,1,
R2363,barrerías,1047,word,2,True,7,1.3109281063079834,1,
R2363,sumaré,1048,word,2,True,7,1.1101329326629639,1,
R2363,faltará,1049,word,2,True,7,0.621840238571167,1,
R2363,lucharán,1050,word,2,True,7,0.8808019161224365,1,
R2363,cisabas,1051,word,1,True,7,0.6691572666168213,2,
R2363,cichiremos,1052,word,1,True,7,0.692918062210083,2,
R2363,eplaría,1053,word,1,True,7,1.043337106704712,2,
R2363,obrarás,1054,word,1,False,7,0.7260568141937256,1,
R2363,galaremos,1055,word,1,True,7,0.6870138645172119,2,
R2363,gruñiría,1056,word,2,True,7,0.7261269092559814,1,
R2363,barrerán,1057,word,2,True,7,1.285810947418213,1,
R2363,mardiría,1058,word,1,True,7,3.665955066680908,2,
R2363,prenderían,1059,word,2,True,7,1.1309568881988525,1,
R2363,comerán,1060,word,2,True,7,2.724226713180542,1,
R2363,juraríamos,1061,word,2,True,7,0.6182818412780762,1,
R2363,cipía,1062,word,1,True,7,1.6080589294433594,2,
R2363,chanrabas,1063,word,1,True,7,5.889049768447876,2,
R2363,eplarías,1064,word,1,True,7,0.7889852523803711,2,
R2363,gacharemos,1065,word,1,True,7,0.7311751842498779,2,
R2363,poreríamos,1066,word,1,True,7,1.104154109954834,2,
R2363,tuplías,1067,word,1,True,7,0.6739990711212158,2,
R2363,sauarás,1068,word,1,True,7,0.6769957542419434,2,
R2363,mertarás,1069,word,1,True,7,0.8099441528320312,2,
R2363,comerían,1070,word,2,True,7,0.7569108009338379,1,
R2363,lachíamos,1071,word,1,True,7,0.7520999908447266,2,
R2363,prenderías,1072,word,2,True,7,0.6808462142944336,1,
R2363,cubría,1073,word,2,True,7,0.6670567989349365,1,
R2363,rondarían,1074,word,2,True,7,0.7292687892913818,1,
R2363,cichirás,1075,word,1,True,7,0.6381192207336426,2,
R2363,ardían,1076,word,2,True,7,0.7559938430786133,1,
R2363,rondábamos,1077,word,2,True,7,1.1528739929199219,1,
R2363,sufrías,1078,word,2,True,7,0.815993070602417,1,
R2363,quijarían,1079,word,1,True,7,0.6978559494018555,2,
R2363,moncías,1080,word,1,True,7,0.7461690902709961,2,
R2363,cederían,1081,word,1,False,7,0.8080220222473145,1,
R2363,prendería,1082,word,2,True,7,1.1408660411834717,1,
R2363,fundirá,1083,word,1,False,7,0.8060171604156494,1,
R2363,vultará,1084,word,1,True,7,0.7334091663360596,2,
R2363,cuarrirán,1085,word,1,True,7,0.8260610103607178,2,
R2363,maftaremos,1086,word,1,True,7,1.0700130462646484,2,
R2363,comías,1087,word,2,True,7,0.7580990791320801,1,
R2363,gruñirías,1088,word,2,True,7,1.1198649406433105,1,
R2363,mardía,1089,word,1,True,7,1.3250792026519775,2,
R2363,honderá,1090,word,1,True,7,0.7080080509185791,2,
R2363,venderían,1091,word,2,True,7,0.7450621128082275,1,
R2363,ceterías,1092,word,1,True,7,0.9698958396911621,2,
