participant,stimuli,trialNum,target_type,response,correct,block,reaction_time,trigger,
R2369,fundirían,1,word,1,False,1,1.446044921875,1,
R2369,quemaban,2,word,1,False,1,2.2591049671173096,1,
R2369,runábamos,3,word,2,False,1,2.1839799880981445,2,
R2369,comerían,4,word,2,True,1,2.7030210494995117,1,
R2369,rondaríamos,5,word,1,False,1,2.8119969367980957,1,
R2369,ceflíamos,6,word,1,True,1,2.811924934387207,2,
R2369,arderías,7,word,1,False,1,3.494023084640503,1,
R2369,rayabas,8,word,1,False,1,3.3680760860443115,1,
R2369,jurarán,9,word,2,True,1,1.402353286743164,1,
R2369,cubrían,10,word,2,True,1,2.0140678882598877,1,
R2369,lailábamos,11,word,1,True,1,2.4589078426361084,2,
R2369,ardían,12,word,1,False,1,1.7949638366699219,1,
R2369,lailaría,13,word,1,True,1,2.6349661350250244,2,
R2369,moncerías,14,word,2,False,1,1.9670352935791016,2,
R2369,barrería,15,word,2,True,1,1.499798059463501,1,
R2369,casaba,16,word,2,True,1,1.9299089908599854,1,
R2369,sesía,17,word,2,False,1,1.8859779834747314,2,
R2369,gachaban,18,word,2,False,1,2.335005044937134,2,
R2369,subía,19,word,2,True,1,0.9977898597717285,1,
R2369,morderé,20,word,2,True,1,1.2859289646148682,1,
R2369,mertaría,21,word,1,True,1,2.111621141433716,2,
R2369,retarás,22,word,1,False,1,1.6994318962097168,1,
R2369,cubrirá,23,word,2,True,1,1.36313796043396,1,
R2369,quemarás,24,word,2,True,1,2.165925979614258,1,
R2369,sesían,25,word,2,False,1,2.4779999256134033,2,
R2369,bailábamos,26,word,2,True,1,2.0057852268218994,1,
R2369,rayarían,27,word,2,True,1,2.2967569828033447,1,
R2369,luntían,28,word,1,True,1,1.5289299488067627,2,
R2369,besarías,29,word,2,True,1,1.4751911163330078,1,
R2369,eplaba,30,word,1,True,1,1.606015920639038,2,
R2369,lailaré,31,word,1,True,1,2.9842100143432617,2,
R2369,ceflerían,32,word,1,True,1,2.6449661254882812,2,
R2369,sindaremos,33,word,2,False,1,2.0838048458099365,2,
R2369,burrabas,34,word,1,True,1,3.316049814224243,2,
R2369,rotará,35,word,2,True,1,2.9831111431121826,1,
R2369,zusarías,36,word,2,False,1,2.3630592823028564,2,
R2369,maftarías,37,word,1,True,1,1.7919549942016602,2,
R2369,burraban,38,word,1,True,1,2.919037103652954,2,
R2369,maftaría,39,word,1,True,1,1.5415480136871338,2,
R2369,gacharían,40,word,2,False,1,2.6480512619018555,2,
R2369,barríamos,41,word,2,True,1,1.732712984085083,1,
R2369,gacharemos,42,word,2,False,1,1.7668769359588623,2,
R2369,pavarías,43,word,1,True,1,1.790863275527954,2,
R2369,luntirá,44,word,1,True,1,1.8730242252349854,2,
R2369,rondaré,45,word,1,False,1,2.058029890060425,1,
R2369,retaría,46,word,1,False,1,2.4400172233581543,1,
R2369,moncerá,47,word,2,False,1,1.622847080230713,2,
R2369,luchará,48,word,2,True,1,1.190972089767456,1,
R2369,bruviríamos,49,word,1,True,1,3.221099853515625,2,
R2369,juraremos,50,word,2,True,1,1.178009033203125,1,
R2369,rayarías,51,word,1,False,1,3.0871098041534424,1,
R2369,ciperíamos,52,word,1,True,1,3.179928779602051,2,
R2369,galaríamos,53,word,2,False,1,2.4240987300872803,2,
R2369,subiríamos,54,word,2,True,1,1.6298859119415283,1,
R2369,cisaban,55,word,1,True,1,4.221019268035889,2,
R2369,rotaremos,56,word,2,True,1,2.991999864578247,1,
R2369,zusaría,57,word,2,False,1,2.4801509380340576,2,
R2369,pactará,58,word,1,False,1,3.928046226501465,1,
R2369,porerías,59,word,2,False,1,3.56192684173584,2,
R2369,bimaremos,60,word,1,True,1,2.7519001960754395,2,
R2369,toserían,61,word,1,False,1,3.763947010040283,1,
R2369,runaba,62,word,1,True,1,3.4074580669403076,2,
R2369,bailabas,63,word,2,True,1,1.205782175064087,1,
R2369,barrerías,64,word,1,False,1,4.648977994918823,1,
R2369,casaríamos,65,word,2,True,1,1.0459651947021484,1,
R2369,tuplirías,66,word,1,True,1,2.020122766494751,2,
R2369,fundirán,67,word,1,False,1,4.035021066665649,1,
R2369,obrarías,68,word,1,False,1,3.2189249992370605,1,
R2369,honderemos,69,word,1,True,1,4.854107856750488,2,
R2369,pavarían,70,word,1,True,1,3.2840020656585693,2,
R2369,quijaremos,71,word,2,False,1,3.301257848739624,2,
R2369,fundían,72,word,1,False,1,3.823976755142212,1,
R2369,mardiré,73,word,2,False,1,2.9990317821502686,2,
R2369,rayaban,74,word,1,False,1,1.9860548973083496,1,
R2369,nadarían,75,word,1,False,1,3.810080051422119,1,
R2369,rimaba,76,word,2,True,1,3.923995018005371,1,
R2369,mertarían,77,word,1,True,1,3.0819571018218994,2,
R2369,anrías,78,word,2,False,1,1.8914642333984375,2,
R2369,lucharás,79,word,2,True,1,0.763906717300415,1,
R2369,obrábamos,80,word,2,True,1,2.5969080924987793,1,
R2369,luntíamos,81,word,1,True,1,1.5021820068359375,2,
R2369,bruvías,82,word,1,True,1,2.476104974746704,2,
R2369,casará,83,word,2,True,1,2.6568830013275146,1,
R2369,lachía,84,word,1,True,1,1.3009591102600098,2,
R2369,mardirás,85,word,1,True,1,2.8609979152679443,2,
R2369,bimará,86,word,1,True,1,2.514965772628784,2,
R2369,poreríamos,87,word,2,False,1,1.3959481716156006,2,
R2369,luntías,88,word,1,True,1,1.470909833908081,2,
R2369,cenaré,89,word,2,True,1,1.4648261070251465,1,
R2369,bruvía,90,word,1,True,1,2.7709481716156006,2,
R2369,mordías,91,word,2,True,1,1.713846206665039,1,
R2369,gruñirían,92,word,1,False,1,4.139114141464233,1,
R2369,cuarrías,93,word,1,True,1,2.7888429164886475,2,
R2369,rotarías,94,word,2,True,1,3.7560219764709473,1,
R2369,cisaríamos,95,word,1,True,1,3.060950994491577,2,
R2369,sauaría,96,word,1,True,1,4.5759968757629395,2,
R2369,correrían,97,word,2,True,1,1.3988940715789795,1,
R2369,formaba,98,word,2,True,1,3.53905987739563,1,
R2369,vultaremos,99,word,2,False,1,3.9399781227111816,2,
R2369,rotaban,100,word,1,False,1,6.35015606880188,1,
R2369,bruvirá,101,word,1,True,1,2.141786813735962,2,
R2369,toserán,102,word,1,False,1,5.294980049133301,1,
R2369,rondaría,103,word,2,True,1,2.38999605178833,1,
R2369,gacharán,104,word,2,False,1,1.0949218273162842,2,
R2369,zusábamos,105,word,1,True,1,4.914048910140991,2,
R2369,correré,106,word,2,True,1,0.957982063293457,1,
R2369,uniría,107,word,1,False,1,4.440067768096924,1,
R2369,cortaban,108,word,2,True,1,2.668787956237793,1,
R2369,chanraríamos,109,word,1,True,1,3.1491947174072266,2,
R2369,lamerían,110,word,1,False,1,2.9167609214782715,1,
R2369,tujía,111,word,2,False,1,3.8040990829467773,2,
R2369,lameríamos,112,word,1,False,1,2.2988691329956055,1,
R2369,eplaremos,113,word,1,True,1,1.7170391082763672,2,
R2369,ardíamos,114,word,2,True,1,1.7926599979400635,1,
R2369,anrerás,115,word,1,True,1,4.026373863220215,2,
R2369,tujirás,116,word,1,True,1,2.2447760105133057,2,
R2369,partirías,117,word,2,True,1,2.311927080154419,1,
R2369,charlaba,118,word,1,False,1,2.2470180988311768,1,
R2369,toseremos,119,word,2,True,1,2.8221468925476074,1,
R2369,prenderíamos,120,word,2,True,1,1.4299960136413574,1,
R2369,cenaba,121,word,2,True,1,1.6871089935302734,1,
R2369,ceflían,122,word,1,True,1,0.9400310516357422,2,
R2369,faneré,123,word,1,True,1,1.9028279781341553,2,
R2369,bruviré,124,word,1,True,1,0.8464090824127197,2,
R2369,frinderán,125,word,1,True,1,4.172820091247559,2,
R2369,imían,126,word,1,True,1,2.6930038928985596,2,
R2369,bailaría,127,word,2,True,1,0.800987958908081,1,
R2369,ciperé,128,word,1,True,1,1.6038331985473633,2,
R2369,nadarás,129,word,1,False,1,2.6309971809387207,1,
R2369,galaré,130,word,2,False,1,4.8179168701171875,2,
R2369,cuarriría,131,word,2,False,1,5.479928016662598,2,
R2369,meterán,132,word,2,True,1,1.7730062007904053,1,
R2369,cubriré,133,word,1,False,1,1.769129991531372,1,
R2369,corría,134,word,2,True,1,1.5038931369781494,1,
R2369,prenderían,135,word,2,True,1,0.985131025314331,1,
R2369,lorgaría,136,word,1,True,1,3.524005174636841,2,
R2369,zusaríamos,137,word,1,True,1,2.210860013961792,2,
R2369,cipías,138,word,1,True,1,1.0799758434295654,2,
R2369,lacheremos,139,word,1,True,1,3.9160330295562744,2,
R2369,besarán,140,word,2,True,1,1.4608500003814697,1,
R2369,zusaremos,141,word,1,True,1,4.643915176391602,2,
R2369,cosíamos,142,word,1,False,1,4.205170154571533,1,
R2369,casaremos,143,word,2,True,1,1.5188748836517334,1,
R2369,ritían,144,word,2,False,1,3.004091739654541,2,
R2369,cichiré,145,word,1,True,1,1.3242671489715576,2,
R2369,luchábamos,146,word,2,True,1,2.1062169075012207,1,
R2369,retaba,147,word,1,False,1,2.927253007888794,1,
R2369,ceterás,148,word,1,True,1,3.0062382221221924,2,
R2369,cichiríamos,149,word,1,True,1,1.7622363567352295,2,
R2369,cuarrirías,150,word,2,False,1,3.6445021629333496,2,
R2369,morderías,151,word,1,False,1,3.894343137741089,1,
R2369,luntía,152,word,1,True,1,1.3106927871704102,2,
R2369,zusarían,153,word,1,True,1,1.6662771701812744,2,
R2369,charlabas,154,word,1,False,1,2.1051931381225586,1,
R2369,quijaré,155,word,2,False,1,5.376344203948975,2,
R2369,fanerá,156,word,1,True,1,2.2160792350769043,2,
R2369,partiría,157,word,2,True,2,4.650961875915527,1,
R2369,rimará,158,word,1,False,2,3.1470229625701904,1,
R2369,pavaban,159,word,1,True,2,3.2046048641204834,2,
R2369,vultará,160,word,2,False,2,1.50307297706604,2,
R2369,maftarán,161,word,1,True,2,1.1650190353393555,2,
R2369,rotarás,162,word,1,False,2,2.029935121536255,1,
R2369,charlarías,163,word,1,False,2,3.2530789375305176,1,
R2369,tujirán,164,word,1,True,2,2.3479926586151123,2,
R2369,temías,165,word,2,True,2,1.1578450202941895,1,
R2369,imirá,166,word,2,False,2,5.0139360427856445,2,
R2369,poría,167,word,2,False,2,1.3488948345184326,2,
R2369,juraría,168,word,2,True,2,1.9129753112792969,1,
R2369,galaba,169,word,1,True,2,4.395408868789673,2,
R2369,rotaré,170,word,2,True,2,2.298013210296631,1,
R2369,frindería,171,word,2,False,2,2.6248488426208496,2,
R2369,gruñirías,172,word,1,False,2,1.3189659118652344,1,
R2369,rotarían,173,word,1,False,2,3.3389711380004883,1,
R2369,venderá,174,word,2,True,2,1.0729930400848389,1,
R2369,pactábamos,175,word,2,True,2,4.868031024932861,1,
R2369,besaremos,176,word,2,True,2,0.9297919273376465,1,
R2369,cumpliremos,177,word,2,True,2,2.9741387367248535,1,
R2369,burraba,178,word,1,True,2,2.175848960876465,2,
R2369,coseré,179,word,1,False,2,3.7749319076538086,1,
R2369,chanraban,180,word,1,True,2,2.2320289611816406,2,
R2369,sufriríamos,181,word,2,True,2,1.008993148803711,1,
R2369,cisarían,182,word,1,True,2,3.1439690589904785,2,
R2369,galarán,183,word,1,True,2,2.693991184234619,2,
R2369,tosían,184,word,2,True,2,1.8239359855651855,1,
R2369,sufrirá,185,word,2,True,2,1.3571748733520508,1,
R2369,cisarías,186,word,1,True,2,1.1358239650726318,2,
R2369,sumaríamos,187,word,1,False,2,3.6021642684936523,1,
R2369,comíamos,188,word,2,True,2,1.7687780857086182,1,
R2369,gacharíamos,189,word,2,False,2,1.2959768772125244,2,
R2369,cichirás,190,word,1,True,2,1.1019201278686523,2,
R2369,bigaban,191,word,1,True,2,1.2700469493865967,2,
R2369,seserás,192,word,1,True,2,3.144045829772949,2,
R2369,sindabas,193,word,1,True,2,2.4018948078155518,2,
R2369,runará,194,word,1,True,2,4.147562026977539,2,
R2369,lorgaré,195,word,1,True,2,2.0949079990386963,2,
R2369,casarías,196,word,2,True,2,1.633922815322876,1,
R2369,lailarás,197,word,1,True,2,1.5300610065460205,2,
R2369,ceflías,198,word,1,True,2,0.8740930557250977,2,
R2369,metían,199,word,2,True,2,2.2580318450927734,1,
R2369,bimaría,200,word,1,True,2,1.1850199699401855,2,
R2369,sufrirían,201,word,2,True,2,1.5988268852233887,1,
R2369,porerían,202,word,2,False,2,1.4839658737182617,2,
R2369,formaremos,203,word,2,True,2,2.180110216140747,1,
R2369,besabas,204,word,2,True,2,1.2278258800506592,1,
R2369,ritía,205,word,1,True,2,1.801908016204834,2,
R2369,morderemos,206,word,2,True,2,1.9320249557495117,1,
R2369,fundirá,207,word,2,True,2,3.52607798576355,1,
R2369,sauaban,208,word,1,True,2,3.0260190963745117,2,
R2369,ciperán,209,word,1,True,2,1.0771069526672363,2,
R2369,faltará,210,word,2,True,2,1.718855857849121,1,
R2369,lamerás,211,word,1,False,2,1.3749511241912842,1,
R2369,subían,212,word,2,True,2,1.022857904434204,1,
R2369,cortaremos,213,word,2,True,2,1.6520359516143799,1,
R2369,rondarán,214,word,1,False,2,1.4571168422698975,1,
R2369,cenabas,215,word,1,False,2,2.603989839553833,1,
R2369,temería,216,word,2,True,2,1.6629650592803955,1,
R2369,moncían,217,word,1,True,2,1.781013011932373,2,
R2369,cefleré,218,word,1,True,2,0.8300151824951172,2,
R2369,mertaremos,219,word,2,False,2,1.5400738716125488,2,
R2369,cetían,220,word,1,True,2,3.8278708457946777,2,
R2369,tuplíamos,221,word,1,True,2,2.740964889526367,2,
R2369,sumaremos,222,word,1,False,2,4.0950329303741455,1,
R2369,faltarás,223,word,2,True,2,1.2199122905731201,1,
R2369,cumplíamos,224,word,2,True,2,1.0279769897460938,1,
R2369,casabas,225,word,2,True,2,1.5529661178588867,1,
R2369,mertaríamos,226,word,2,False,2,2.4516029357910156,2,
R2369,subirías,227,word,1,False,2,3.0601439476013184,1,
R2369,lachería,228,word,2,False,2,3.83807110786438,2,
R2369,sufríamos,229,word,2,True,2,0.8969769477844238,1,
R2369,subiría,230,word,2,True,2,3.2469770908355713,1,
R2369,lailaremos,231,word,1,True,2,1.027022123336792,2,
R2369,rayaríamos,232,word,2,True,2,6.155483245849609,1,
R2369,bruvirás,233,word,1,True,2,4.239908218383789,2,
R2369,tujiríamos,234,word,1,True,2,2.447021961212158,2,
R2369,porías,235,word,2,False,2,0.9800891876220703,2,
R2369,gacharía,236,word,2,False,2,1.0620439052581787,2,
R2369,partirían,237,word,2,True,2,2.583078145980835,1,
R2369,besará,238,word,2,True,2,2.158939838409424,1,
R2369,sauarían,239,word,1,True,2,1.269930124282837,2,
R2369,correremos,240,word,2,True,2,0.9300289154052734,1,
R2369,fundiríamos,241,word,1,False,2,5.326987981796265,1,
R2369,honderías,242,word,1,True,2,3.7483019828796387,2,
R2369,cisarán,243,word,1,True,2,2.4524002075195312,2,
R2369,lamías,244,word,1,False,2,1.7549550533294678,1,
R2369,casaría,245,word,1,False,2,5.516213655471802,1,
R2369,rondabas,246,word,1,False,2,2.0328872203826904,1,
R2369,sindarás,247,word,1,True,2,3.3060061931610107,2,
R2369,rondaremos,248,word,1,False,2,3.486931800842285,1,
R2369,vendería,249,word,2,True,2,1.2039873600006104,1,
R2369,somerías,250,word,1,True,2,3.0359160900115967,2,
R2369,faltábamos,251,word,2,True,2,1.3591148853302002,1,
R2369,focarán,252,word,1,True,2,4.6370849609375,2,
R2369,charlarás,253,word,1,False,2,2.162881851196289,1,
R2369,toserá,254,word,2,True,2,3.6139559745788574,1,
R2369,vultábamos,255,word,2,False,2,1.3038609027862549,2,
R2369,cenarás,256,word,2,True,2,0.9517691135406494,1,
R2369,nadarías,257,word,1,False,2,1.3640601634979248,1,
R2369,cisará,258,word,2,False,2,3.940063953399658,2,
R2369,temerían,259,word,2,True,2,1.4899840354919434,1,
R2369,eplará,260,word,1,True,2,1.0239839553833008,2,
R2369,comían,261,word,2,True,2,1.120030164718628,1,
R2369,corrías,262,word,2,True,2,1.663801670074463,1,
R2369,meterá,263,word,2,True,2,2.1740188598632812,1,
R2369,anreremos,264,word,1,True,2,1.0019159317016602,2,
R2369,cubrirían,265,word,2,True,2,7.123970031738281,1,
R2369,somíamos,266,word,1,True,2,2.706753969192505,2,
R2369,nadaría,267,word,1,False,2,2.1359550952911377,1,
R2369,rondarás,268,word,1,False,2,2.9110207557678223,1,
R2369,burraré,269,word,1,True,2,2.8879661560058594,2,
R2369,quijarías,270,word,1,True,2,3.2979142665863037,2,
R2369,lucharemos,271,word,2,True,2,1.2749791145324707,1,
R2369,vendíamos,272,word,2,True,2,1.5009098052978516,1,
R2369,lucharíamos,273,word,2,True,2,1.2220790386199951,1,
R2369,galaría,274,word,1,True,2,3.1860649585723877,2,
R2369,somías,275,word,1,True,2,2.0928990840911865,2,
R2369,bruviría,276,word,1,True,2,1.6838839054107666,2,
R2369,mardiremos,277,word,1,True,2,3.6851019859313965,2,
R2369,seserá,278,word,1,True,2,4.684079885482788,2,
R2369,chanrará,279,word,1,True,2,2.3540849685668945,2,
R2369,metíamos,280,word,2,True,2,1.7971117496490479,1,
R2369,rayaremos,281,word,1,False,2,7.384972095489502,1,
R2369,rayarás,282,word,2,True,2,5.5059731006622314,1,
R2369,mardíamos,283,word,1,True,2,5.28095006942749,2,
R2369,lorgaba,284,word,1,True,2,2.0438637733459473,2,
R2369,ardería,285,word,1,False,2,3.1842050552368164,1,
R2369,mertará,286,word,2,False,2,2.4298431873321533,2,
R2369,faltarán,287,word,2,True,2,1.7359988689422607,1,
R2369,zusarás,288,word,1,True,2,1.57896089553833,2,
R2369,cedías,289,word,1,False,2,2.3278279304504395,1,
R2369,anría,290,word,1,True,2,3.59443998336792,2,
R2369,unirías,291,word,1,False,2,4.2870259284973145,1,
R2369,temíamos,292,word,2,True,2,1.097083330154419,1,
R2369,mordería,293,word,2,True,2,4.086063861846924,1,
R2369,subíamos,294,word,2,True,2,3.412048101425171,1,
R2369,narraba,295,word,1,False,2,2.6450788974761963,1,
R2369,formará,296,word,2,True,2,2.3518850803375244,1,
R2369,rayábamos,297,word,2,True,2,4.347181797027588,1,
R2369,rimaremos,298,word,1,False,2,3.0627148151397705,1,
R2369,luntiría,299,word,1,True,2,1.5929391384124756,2,
R2369,fundirás,300,word,1,False,2,1.791834831237793,1,
R2369,focaremos,301,word,1,True,2,3.913193941116333,2,
R2369,sindará,302,word,1,True,2,1.7768497467041016,2,
R2369,formaré,303,word,1,False,2,3.727029323577881,1,
R2369,luntirán,304,word,1,True,2,1.2033798694610596,2,
R2369,riterás,305,word,1,True,2,2.263061046600342,2,
R2369,sumábamos,306,word,1,False,2,3.303711175918579,1,
R2369,coseríamos,307,word,1,False,2,5.097189903259277,1,
R2369,cipería,308,word,1,True,2,1.641829252243042,2,
R2369,burraríamos,309,word,1,True,2,3.6602890491485596,2,
R2369,ritíamos,310,word,1,True,2,1.6360089778900146,2,
R2369,galaban,311,word,1,True,2,0.9210410118103027,2,
R2369,rimaban,312,word,1,False,2,3.5738749504089355,1,
R2369,bimarán,313,word,1,True,3,1.2340028285980225,2,
R2369,corrían,314,word,2,True,3,1.0269172191619873,1,
R2369,cisaría,315,word,1,True,3,1.1550159454345703,2,
R2369,luchaban,316,word,2,True,3,0.9246149063110352,1,
R2369,arderás,317,word,1,False,3,2.2089810371398926,1,
R2369,morderíamos,318,word,2,True,3,2.1689341068267822,1,
R2369,luntirías,319,word,1,True,3,1.0860931873321533,2,
R2369,rondarían,320,word,1,False,3,1.3472568988800049,1,
R2369,anrerán,321,word,1,True,3,1.591829776763916,2,
R2369,besaría,322,word,2,True,3,0.7858262062072754,1,
R2369,cubriríamos,323,word,2,True,3,1.4778103828430176,1,
R2369,gachará,324,word,1,True,3,4.00294303894043,2,
R2369,cetería,325,word,1,True,3,5.334017038345337,2,
R2369,rondarías,326,word,1,False,3,2.256927967071533,1,
R2369,luntiremos,327,word,1,True,3,1.3631219863891602,2,
R2369,nadabas,328,word,2,True,3,2.100825071334839,1,
R2369,unirás,329,word,1,False,3,1.8339321613311768,1,
R2369,sauaré,330,word,1,True,3,0.9308052062988281,2,
R2369,monceremos,331,word,1,True,3,2.609920024871826,2,
R2369,ceflerán,332,word,1,True,3,1.177339792251587,2,
R2369,cosías,333,word,1,False,3,2.04807710647583,1,
R2369,ceterán,334,word,1,True,3,1.0820329189300537,2,
R2369,poreré,335,word,2,False,3,1.6921160221099854,2,
R2369,frinderían,336,word,1,True,3,2.076064109802246,2,
R2369,partirán,337,word,1,False,3,3.0621840953826904,1,
R2369,rayarán,338,word,1,False,3,3.8908863067626953,1,
R2369,cichíamos,339,word,1,True,3,1.9870729446411133,2,
R2369,hondían,340,word,1,True,3,1.657794713973999,2,
R2369,tosías,341,word,2,True,3,2.435986042022705,1,
R2369,cedería,342,word,1,False,3,2.9879581928253174,1,
R2369,venderás,343,word,2,True,3,0.9838778972625732,1,
R2369,galarías,344,word,1,True,3,2.5498480796813965,2,
R2369,lacherás,345,word,1,True,3,2.459857225418091,2,
R2369,narraban,346,word,1,False,3,2.713923692703247,1,
R2369,bailaré,347,word,2,True,3,1.4340369701385498,1,
R2369,bailará,348,word,2,True,3,2.558013916015625,1,
R2369,cuarriríamos,349,word,2,False,3,3.579937696456909,2,
R2369,vendían,350,word,2,True,3,0.9646389484405518,1,
R2369,tuplían,351,word,1,True,3,0.8489699363708496,2,
R2369,retarías,352,word,2,True,3,3.088036060333252,1,
R2369,comerías,353,word,2,True,3,3.5899970531463623,1,
R2369,faltaba,354,word,2,True,3,2.4750359058380127,1,
R2369,fundiría,355,word,1,False,3,1.1009962558746338,1,
R2369,cefleremos,356,word,1,True,3,1.075859785079956,2,
R2369,lorgaríamos,357,word,1,True,3,1.153120994567871,2,
R2369,runarían,358,word,1,True,3,1.1008250713348389,2,
R2369,ciperás,359,word,1,True,3,1.5469260215759277,2,
R2369,besaré,360,word,2,True,3,1.5289130210876465,1,
R2369,somerá,361,word,1,True,3,1.3249661922454834,2,
R2369,charlaremos,362,word,1,False,3,1.3799529075622559,1,
R2369,pactarían,363,word,2,True,3,3.95704984664917,1,
R2369,unía,364,word,1,False,3,3.078904867172241,1,
R2369,unían,365,word,1,False,3,3.0549328327178955,1,
R2369,sindaría,366,word,1,True,3,2.63693904876709,2,
R2369,chanraremos,367,word,1,True,3,1.3318188190460205,2,
R2369,nadábamos,368,word,1,False,3,3.704892873764038,1,
R2369,porerás,369,word,2,False,3,1.2670378684997559,2,
R2369,juraré,370,word,2,True,3,0.9188580513000488,1,
R2369,correría,371,word,2,True,3,2.6053192615509033,1,
R2369,lamerán,372,word,1,False,3,1.1459779739379883,1,
R2369,retabas,373,word,1,False,3,1.4501478672027588,1,
R2369,runaría,374,word,1,True,3,4.51096510887146,2,
R2369,sumará,375,word,1,False,3,0.9620580673217773,1,
R2369,pavabas,376,word,1,True,3,1.362882137298584,2,
R2369,cumplirá,377,word,2,True,3,2.5140089988708496,1,
R2369,imíamos,378,word,1,True,3,4.9271180629730225,2,
R2369,bigaremos,379,word,1,True,3,2.7738938331604004,2,
R2369,cederemos,380,word,1,False,3,4.449933767318726,1,
R2369,cubriremos,381,word,2,True,3,1.2429661750793457,1,
R2369,lachíamos,382,word,1,True,3,1.1288769245147705,2,
R2369,lamían,383,word,1,False,3,1.0300850868225098,1,
R2369,luntiríamos,384,word,1,True,3,2.0709939002990723,2,
R2369,juraríamos,385,word,2,True,3,1.0240161418914795,1,
R2369,lachían,386,word,1,True,3,1.7049689292907715,2,
R2369,quemarías,387,word,1,False,3,2.1182589530944824,1,
R2369,correrías,388,word,2,True,3,3.0450170040130615,1,
R2369,obraríamos,389,word,2,True,3,2.9320151805877686,1,
R2369,fanía,390,word,1,True,3,1.6630327701568604,2,
R2369,quemaría,391,word,1,False,3,2.010939836502075,1,
R2369,casaré,392,word,2,True,3,2.1089577674865723,1,
R2369,runabas,393,word,1,True,3,1.1232209205627441,2,
R2369,gruñía,394,word,2,True,3,1.5309770107269287,1,
R2369,faltaban,395,word,1,False,3,1.2408499717712402,1,
R2369,maftabas,396,word,1,True,3,0.8458130359649658,2,
R2369,seserían,397,word,1,True,3,2.209028720855713,2,
R2369,sufrirás,398,word,2,True,3,1.3809547424316406,1,
R2369,sindaba,399,word,1,True,3,1.3252360820770264,2,
R2369,cichirían,400,word,1,True,3,0.8731141090393066,2,
R2369,formarían,401,word,2,True,3,3.676780939102173,1,
R2369,lacheré,402,word,1,True,3,1.63028883934021,2,
R2369,maftarás,403,word,1,True,3,0.8912508487701416,2,
R2369,rimábamos,404,word,1,False,3,1.2718818187713623,1,
R2369,quijarás,405,word,1,True,3,1.7682380676269531,2,
R2369,vultaré,406,word,2,False,3,2.0962538719177246,2,
R2369,someríamos,407,word,1,True,3,2.230405807495117,2,
R2369,lacheríamos,408,word,1,True,3,2.0162160396575928,2,
R2369,cuarrirá,409,word,1,True,3,2.8286349773406982,2,
R2369,cuarriré,410,word,1,True,3,3.3951497077941895,2,
R2369,morderían,411,word,2,True,3,1.7573351860046387,1,
R2369,mordían,412,word,2,True,3,2.107116937637329,1,
R2369,rotaríamos,413,word,1,False,3,2.0907042026519775,1,
R2369,lachías,414,word,1,True,3,1.1680200099945068,2,
R2369,cuarrirían,415,word,1,True,3,3.511979103088379,2,
R2369,venderemos,416,word,2,True,3,0.7620859146118164,1,
R2369,formarías,417,word,1,False,3,4.426048040390015,1,
R2369,fanerás,418,word,1,True,3,0.9609899520874023,2,
R2369,imirían,419,word,2,False,3,2.877953052520752,2,
R2369,narrábamos,420,word,1,False,3,3.487884759902954,1,
R2369,fanerán,421,word,1,True,3,0.7811100482940674,2,
R2369,fundía,422,word,2,True,3,5.906165838241577,1,
R2369,mertarán,423,word,2,False,3,2.332015037536621,2,
R2369,besarían,424,word,2,True,3,1.829237937927246,1,
R2369,mordía,425,word,2,True,3,2.9169628620147705,1,
R2369,unías,426,word,2,True,3,3.7348577976226807,1,
R2369,fundiré,427,word,1,False,3,1.0419111251831055,1,
R2369,riterán,428,word,1,True,3,2.772001028060913,2,
R2369,jurarían,429,word,2,True,3,3.6900529861450195,1,
R2369,charlarán,430,word,1,False,3,1.0270938873291016,1,
R2369,bigarán,431,word,1,True,3,2.2859718799591064,2,
R2369,temerías,432,word,2,True,3,2.349966049194336,1,
R2369,sindarán,433,word,1,True,3,1.1427900791168213,2,
R2369,mertarás,434,word,2,False,3,3.1089749336242676,2,
R2369,comías,435,word,2,True,3,1.633866786956787,1,
R2369,casarían,436,word,2,True,3,3.476163148880005,1,
R2369,ciperían,437,word,1,True,3,0.8280720710754395,2,
R2369,bimabas,438,word,1,True,3,0.8032269477844238,2,
R2369,sumaba,439,word,1,False,3,0.7560398578643799,1,
R2369,sauarías,440,word,1,True,3,0.9300410747528076,2,
R2369,cortarás,441,word,2,True,3,2.017977714538574,1,
R2369,mardirían,442,word,2,False,3,2.7998690605163574,2,
R2369,vultabas,443,word,2,False,3,2.706134080886841,2,
R2369,cedía,444,word,1,False,3,2.8088572025299072,1,
R2369,tosía,445,word,1,False,3,2.3890938758850098,1,
R2369,luntiré,446,word,1,True,3,1.491987943649292,2,
R2369,morderá,447,word,2,True,3,2.057966947555542,1,
R2369,rondaban,448,word,1,False,3,3.6833090782165527,1,
R2369,vendía,449,word,2,True,3,1.0480270385742188,1,
R2369,cubrirán,450,word,2,True,3,1.0648601055145264,1,
R2369,venderías,451,word,2,True,3,0.990983247756958,1,
R2369,tujiría,452,word,1,True,3,1.2588789463043213,2,
R2369,barrías,453,word,2,True,3,1.2410378456115723,1,
R2369,gachaba,454,word,2,False,3,2.0320141315460205,2,
R2369,besábamos,455,word,2,True,3,1.3800029754638672,1,
R2369,coserías,456,word,2,True,3,3.4092161655426025,1,
R2369,somían,457,word,1,True,3,1.3629651069641113,2,
R2369,coserás,458,word,2,True,3,4.385088920593262,1,
R2369,cenará,459,word,2,True,3,1.4139831066131592,1,
R2369,honderás,460,word,1,True,3,1.707974910736084,2,
R2369,partíamos,461,word,2,True,3,2.2790629863739014,1,
R2369,correrán,462,word,2,True,3,1.6892712116241455,1,
R2369,bimaré,463,word,1,True,3,1.2979199886322021,2,
R2369,venderé,464,word,2,True,3,1.1319758892059326,1,
R2369,sufrías,465,word,2,True,3,1.1000142097473145,1,
R2369,eplabas,466,word,1,True,3,1.2950482368469238,2,
R2369,ceterías,467,word,2,False,3,2.87905216217041,2,
R2369,uniríamos,468,word,1,False,3,2.5970518589019775,1,
R2369,gacharé,469,word,2,False,4,1.2949700355529785,2,
R2369,quijarán,470,word,1,True,4,2.299957036972046,2,
R2369,honderían,471,word,1,True,4,0.8740661144256592,2,
R2369,galará,472,word,1,True,4,3.863892078399658,2,
R2369,nadaré,473,word,1,False,4,1.2779371738433838,1,
R2369,seseremos,474,word,1,True,4,2.435991048812866,2,
R2369,metía,475,word,2,True,4,1.0160691738128662,1,
R2369,cenábamos,476,word,2,True,4,5.127975702285767,1,
R2369,lorgarían,477,word,1,True,4,1.024076223373413,2,
R2369,burrábamos,478,word,1,True,4,4.189165115356445,2,
R2369,temerá,479,word,2,True,4,3.126920223236084,1,
R2369,bailarás,480,word,2,True,4,1.1110117435455322,1,
R2369,lorgaremos,481,word,2,False,4,10.158078908920288,2,
R2369,cetaré,482,word,1,True,4,3.892975091934204,2,
R2369,imiré,483,word,1,True,4,2.128929853439331,2,
R2369,metería,484,word,2,True,4,4.1900269985198975,1,
R2369,partiríamos,485,word,2,True,4,1.3888278007507324,1,
R2369,sindaríamos,486,word,1,True,4,5.762192726135254,2,
R2369,tuplirían,487,word,1,True,4,0.7959210872650146,2,
R2369,runaban,488,word,1,True,4,1.1788270473480225,2,
R2369,mardiría,489,word,1,True,4,6.0321033000946045,2,
R2369,focaba,490,word,1,True,4,1.9179010391235352,2,
R2369,cederás,491,word,1,False,4,4.216073989868164,1,
R2369,burrarás,492,word,1,True,4,4.6989898681640625,2,
R2369,cederán,493,word,1,False,4,1.4560959339141846,1,
R2369,mardías,494,word,1,True,4,2.265120029449463,2,
R2369,subiré,495,word,2,True,4,5.932147264480591,1,
R2369,pactarán,496,word,2,True,4,1.6180408000946045,1,
R2369,moncía,497,word,1,True,4,1.8900742530822754,2,
R2369,cenaría,498,word,2,True,4,1.206070899963379,1,
R2369,prenderé,499,word,2,True,4,2.4630377292633057,1,
R2369,focabas,500,word,1,True,4,1.6639900207519531,2,
R2369,subiremos,501,word,2,True,4,2.9068448543548584,1,
R2369,nadaríamos,502,word,1,False,4,1.24387788772583,1,
R2369,mertábamos,503,word,2,False,4,2.6311769485473633,2,
R2369,lailará,504,word,1,True,4,1.1139872074127197,2,
R2369,fanería,505,word,1,True,4,0.8908381462097168,2,
R2369,quemaríamos,506,word,1,False,4,1.9909820556640625,1,
R2369,cortaré,507,word,2,True,4,2.3859150409698486,1,
R2369,cumpliríamos,508,word,2,True,4,1.2011122703552246,1,
R2369,formaban,509,word,1,False,4,2.0337448120117188,1,
R2369,rondará,510,word,1,False,4,1.7658510208129883,1,
R2369,meterían,511,word,2,True,4,1.998952865600586,1,
R2369,gruñirán,512,word,1,False,4,0.8380510807037354,1,
R2369,comeremos,513,word,2,True,4,4.4541871547698975,1,
R2369,riterías,514,word,1,True,4,2.1419479846954346,2,
R2369,obraba,515,word,1,False,4,2.849057912826538,1,
R2369,toserías,516,word,2,True,4,2.34383487701416,1,
R2369,ceflerás,517,word,1,True,4,1.8610479831695557,2,
R2369,cetaban,518,word,1,True,4,2.7890102863311768,2,
R2369,temeré,519,word,2,True,4,1.559898853302002,1,
R2369,sufría,520,word,2,True,4,4.68913722038269,1,
R2369,tuplía,521,word,1,True,4,0.9558291435241699,2,
R2369,subías,522,word,2,True,4,0.9969751834869385,1,
R2369,sauaremos,523,word,1,True,4,1.0970168113708496,2,
R2369,anreríamos,524,word,1,True,4,0.8290271759033203,2,
R2369,cichirías,525,word,1,True,4,0.8540732860565186,2,
R2369,cortábamos,526,word,2,True,4,1.3300268650054932,1,
R2369,imiremos,527,word,1,True,4,1.604902982711792,2,
R2369,bimarás,528,word,1,True,4,0.934999942779541,2,
R2369,rimaríamos,529,word,2,True,4,4.01788592338562,1,
R2369,cuarrirás,530,word,2,False,4,3.193091869354248,2,
R2369,narrará,531,word,1,False,4,4.725006818771362,1,
R2369,venderíamos,532,word,2,True,4,1.5659337043762207,1,
R2369,ritería,533,word,1,True,4,5.290905714035034,2,
R2369,cipían,534,word,1,True,4,0.795717716217041,2,
R2369,anríamos,535,word,2,False,4,1.8128819465637207,2,
R2369,cortaría,536,word,2,True,4,0.9849133491516113,1,
R2369,cipía,537,word,1,True,4,0.7138888835906982,2,
R2369,maftábamos,538,word,1,True,4,0.9590272903442383,2,
R2369,lucharía,539,word,2,True,4,0.745002031326294,1,
R2369,cetaremos,540,word,1,True,4,2.958914041519165,2,
R2369,maftaremos,541,word,1,True,4,0.8409311771392822,2,
R2369,quijábamos,542,word,1,True,4,2.427901029586792,2,
R2369,lailarían,543,word,1,True,4,1.7190310955047607,2,
R2369,prendería,544,word,2,True,4,3.10896372795105,1,
R2369,bimaba,545,word,1,True,4,1.201962947845459,2,
R2369,gruñiremos,546,word,1,False,4,0.4040539264678955,1,
R2369,obrabas,547,word,1,False,4,2.9769721031188965,1,
R2369,faltaríamos,548,word,2,True,4,1.1330769062042236,1,
R2369,monceríamos,549,word,1,True,4,1.923079013824463,2,
R2369,ceterían,550,word,1,True,4,1.0907881259918213,2,
R2369,pactaremos,551,word,2,True,4,0.9279427528381348,1,
R2369,mertaban,552,word,1,True,4,2.1748769283294678,2,
R2369,prendía,553,word,2,True,4,0.8409318923950195,1,
R2369,bailarías,554,word,2,True,4,0.7388720512390137,1,
R2369,fanerían,555,word,1,True,4,2.325939893722534,2,
R2369,zusará,556,word,1,True,4,1.0959138870239258,2,
R2369,uniremos,557,word,2,True,4,6.124825716018677,1,
R2369,narrarás,558,word,1,False,4,1.795454978942871,1,
R2369,cuarriremos,559,word,1,True,4,1.4589760303497314,2,
R2369,formaría,560,word,2,True,4,2.6270511150360107,1,
R2369,somerían,561,word,1,True,4,1.091291904449463,2,
R2369,lailaban,562,word,1,True,4,0.8119728565216064,2,
R2369,besaba,563,word,2,True,4,0.7770528793334961,1,
R2369,nadaremos,564,word,1,False,4,2.029025077819824,1,
R2369,formabas,565,word,2,True,4,2.203871965408325,1,
R2369,toseré,566,word,2,True,4,0.9319851398468018,1,
R2369,retaríamos,567,word,1,False,4,2.9449801445007324,1,
R2369,besaríamos,568,word,2,True,4,0.7550098896026611,1,
R2369,formaríamos,569,word,2,True,4,1.1109130382537842,1,
R2369,cumplirías,570,word,2,True,4,1.3628718852996826,1,
R2369,pavarán,571,word,1,True,4,0.9948940277099609,2,
R2369,bimaban,572,word,1,True,4,0.7348122596740723,2,
R2369,frindía,573,word,1,True,4,1.3368780612945557,2,
R2369,cetarían,574,word,1,True,4,2.4240267276763916,2,
R2369,retarían,575,word,1,False,4,2.188953161239624,1,
R2369,meteré,576,word,2,True,4,1.49239182472229,1,
R2369,prendían,577,word,2,True,4,1.2370412349700928,1,
R2369,luntirían,578,word,1,True,4,1.1490840911865234,2,
R2369,narrarías,579,word,1,False,4,1.4270658493041992,1,
R2369,chanrarás,580,word,1,True,4,1.8434159755706787,2,
R2369,galabas,581,word,1,True,4,1.368274211883545,2,
R2369,maftaban,582,word,1,True,4,0.7962749004364014,2,
R2369,burrarán,583,word,1,True,4,4.150018215179443,2,
R2369,sindaré,584,word,1,True,4,1.168982982635498,2,
R2369,imirás,585,word,2,False,4,4.035085916519165,2,
R2369,lucharé,586,word,1,False,4,0.23903608322143555,1,
R2369,charlarían,587,word,1,False,4,0.7453312873840332,1,
R2369,focará,588,word,1,True,4,0.8889358043670654,2,
R2369,nadaban,589,word,1,False,4,0.816831111907959,1,
R2369,charlaríamos,590,word,1,False,4,1.1249580383300781,1,
R2369,jurarás,591,word,2,True,4,0.7311279773712158,1,
R2369,hondíamos,592,word,1,True,4,0.9149348735809326,2,
R2369,mertarías,593,word,2,False,4,1.851128101348877,2,
R2369,moncerán,594,word,1,True,4,1.7132961750030518,2,
R2369,coseremos,595,word,1,False,4,4.136239051818848,1,
R2369,jurabas,596,word,2,True,4,0.815809965133667,1,
R2369,rotabas,597,word,1,False,4,2.049081802368164,1,
R2369,lamía,598,word,1,False,4,1.6079199314117432,1,
R2369,mertabas,599,word,1,True,4,2.5451741218566895,2,
R2369,someré,600,word,1,True,4,1.0509591102600098,2,
R2369,rondaba,601,word,1,False,4,1.425966739654541,1,
R2369,quemaremos,602,word,2,True,4,4.591140031814575,1,
R2369,tupliré,603,word,1,True,4,0.8529672622680664,2,
R2369,eplarías,604,word,1,True,4,0.9676709175109863,2,
R2369,bimábamos,605,word,1,True,4,4.395978927612305,2,
R2369,cederías,606,word,1,False,4,3.7587852478027344,1,
R2369,sumarías,607,word,1,False,4,1.2269949913024902,1,
R2369,pactaban,608,word,2,True,4,2.6059939861297607,1,
R2369,maftarían,609,word,1,True,4,0.8069009780883789,2,
R2369,obrarás,610,word,1,False,4,3.3340981006622314,1,
R2369,sauábamos,611,word,1,True,4,1.1239731311798096,2,
R2369,tujirían,612,word,1,True,4,0.8558650016784668,2,
R2369,mardía,613,word,1,True,4,2.649909019470215,2,
R2369,partías,614,word,1,False,4,1.906864881515503,1,
R2369,galaremos,615,word,1,True,4,4.020120859146118,2,
R2369,cedían,616,word,1,False,4,1.942965030670166,1,
R2369,cichiría,617,word,1,True,4,3.882067918777466,2,
R2369,cetarás,618,word,1,True,4,1.96113920211792,2,
R2369,quemábamos,619,word,2,True,4,3.010908842086792,1,
R2369,faltabas,620,word,2,True,4,1.2170062065124512,1,
R2369,zusaba,621,word,1,True,4,2.1861560344696045,2,
R2369,fundirías,622,word,1,False,4,2.084881067276001,1,
R2369,sauarán,623,word,1,True,4,0.8138062953948975,2,
R2369,obraré,624,word,1,False,4,3.3348281383514404,1,
R2369,quijabas,625,word,1,True,5,1.7839131355285645,2,
R2369,cederá,626,word,1,False,5,1.1348729133605957,1,
R2369,riterá,627,word,1,True,5,5.9681010246276855,2,
R2369,anrían,628,word,2,False,5,1.4348580837249756,2,
R2369,jurará,629,word,2,True,5,0.8888590335845947,1,
R2369,mardirá,630,word,1,True,5,3.262902021408081,2,
R2369,cumpliré,631,word,2,True,5,0.972017765045166,1,
R2369,gruñías,632,word,1,False,5,0.8259708881378174,1,
R2369,faltarías,633,word,2,True,5,0.9612607955932617,1,
R2369,comerán,634,word,2,True,5,2.388014078140259,1,
R2369,temeremos,635,word,2,True,5,1.3169832229614258,1,
R2369,imías,636,word,1,True,5,2.137000799179077,2,
R2369,riterían,637,word,1,True,5,1.2511579990386963,2,
R2369,retaré,638,word,1,False,5,1.074023723602295,1,
R2369,sauarás,639,word,1,True,5,0.7790348529815674,2,
R2369,temeríamos,640,word,2,True,5,1.7718992233276367,1,
R2369,comeré,641,word,1,False,5,0.9509241580963135,1,
R2369,bimarían,642,word,1,True,5,1.3309240341186523,2,
R2369,cetías,643,word,1,True,5,1.8659379482269287,2,
R2369,cumplía,644,word,2,True,5,1.058241844177246,1,
R2369,quijará,645,word,1,True,5,2.4030940532684326,2,
R2369,cumplirán,646,word,2,True,5,0.9207808971405029,1,
R2369,honderán,647,word,1,True,5,0.9438588619232178,2,
R2369,obrará,648,word,1,False,5,2.3599371910095215,1,
R2369,rimabas,649,word,1,False,5,3.294857978820801,1,
R2369,quijaba,650,word,1,True,5,1.7031269073486328,2,
R2369,metías,651,word,1,False,5,4.519967079162598,1,
R2369,arderían,652,word,1,False,5,2.523798942565918,1,
R2369,barreré,653,word,1,False,5,2.775094985961914,1,
R2369,lailabas,654,word,1,True,5,1.3190369606018066,2,
R2369,sufrían,655,word,2,True,5,1.026803970336914,1,
R2369,partía,656,word,1,False,5,2.3754689693450928,1,
R2369,sufriré,657,word,2,True,5,1.577996015548706,1,
R2369,cortarías,658,word,2,True,5,2.243936061859131,1,
R2369,pactaríamos,659,word,2,True,5,1.856982946395874,1,
R2369,cosía,660,word,1,False,5,3.122994899749756,1,
R2369,sauaba,661,word,1,True,5,0.775874137878418,2,
R2369,maftaré,662,word,1,True,5,0.7980186939239502,2,
R2369,charlará,663,word,1,False,5,0.9080510139465332,1,
R2369,sufriría,664,word,2,True,5,2.011951208114624,1,
R2369,formábamos,665,word,1,False,5,6.040017366409302,1,
R2369,juraba,666,word,2,True,5,0.9189131259918213,1,
R2369,porían,667,word,2,False,5,1.0758030414581299,2,
R2369,hondías,668,word,1,True,5,0.8710200786590576,2,
R2369,nadarán,669,word,1,False,5,1.1120190620422363,1,
R2369,arderé,670,word,1,False,5,1.8270630836486816,1,
R2369,nadará,671,word,1,False,5,1.0849308967590332,1,
R2369,cortará,672,word,2,True,5,1.8000462055206299,1,
R2369,gachábamos,673,word,2,False,5,1.6111290454864502,2,
R2369,cipíamos,674,word,1,True,5,2.1328678131103516,2,
R2369,vultaríamos,675,word,2,False,5,1.1040897369384766,2,
R2369,chanrarían,676,word,1,True,5,1.0832340717315674,2,
R2369,tupliríamos,677,word,1,True,5,1.7291760444641113,2,
R2369,prenderemos,678,word,2,True,5,0.8472330570220947,1,
R2369,correrá,679,word,2,True,5,1.5182998180389404,1,
R2369,obrarían,680,word,1,False,5,3.2599802017211914,1,
R2369,cenaremos,681,word,2,True,5,1.8674581050872803,1,
R2369,retarán,682,word,1,False,5,2.6068999767303467,1,
R2369,cisaba,683,word,1,True,5,1.8182191848754883,2,
R2369,coserían,684,word,1,False,5,1.2162182331085205,1,
R2369,bigaba,685,word,1,True,5,2.152143955230713,2,
R2369,partían,686,word,2,True,5,2.7859368324279785,1,
R2369,rotarán,687,word,1,False,5,1.3412301540374756,1,
R2369,gacharías,688,word,2,False,5,2.3591341972351074,2,
R2369,anreré,689,word,1,True,5,2.656325101852417,2,
R2369,ceteríamos,690,word,1,True,5,1.528843879699707,2,
R2369,vultarían,691,word,2,False,5,2.179058074951172,2,
R2369,partiremos,692,word,1,False,5,2.6640357971191406,1,
R2369,sumarían,693,word,1,False,5,0.8090929985046387,1,
R2369,partirás,694,word,1,False,5,3.937136173248291,1,
R2369,cederíamos,695,word,1,False,5,1.1149821281433105,1,
R2369,toseríamos,696,word,2,True,5,1.7900030612945557,1,
R2369,lorgábamos,697,word,1,True,5,4.001128911972046,2,
R2369,hondía,698,word,1,True,5,0.7808539867401123,2,
R2369,riteríamos,699,word,1,True,5,1.7499308586120605,2,
R2369,cenarán,700,word,2,True,5,1.2158761024475098,1,
R2369,lailaríamos,701,word,1,True,5,1.080517292022705,2,
R2369,moncería,702,word,1,True,5,3.719280958175659,2,
R2369,pactaba,703,word,2,True,5,1.656907081604004,1,
R2369,mardirán,704,word,1,True,5,1.9128072261810303,2,
R2369,focaban,705,word,1,True,5,2.3721847534179688,2,
R2369,cenarías,706,word,2,True,5,1.5199909210205078,1,
R2369,charlábamos,707,word,1,False,5,1.9070000648498535,1,
R2369,casábamos,708,word,2,True,5,4.218132972717285,1,
R2369,retaremos,709,word,1,False,5,1.920867919921875,1,
R2369,prenderán,710,word,2,True,5,1.4107060432434082,1,
R2369,bruvirán,711,word,1,True,5,1.7127759456634521,2,
R2369,faníamos,712,word,1,True,5,3.982919931411743,2,
R2369,hondería,713,word,1,True,5,0.9858419895172119,2,
R2369,lorgarán,714,word,1,True,5,3.499023199081421,2,
R2369,eplarían,715,word,1,True,5,1.9598941802978516,2,
R2369,honderíamos,716,word,1,True,5,1.430978775024414,2,
R2369,burraremos,717,word,1,True,5,4.420174837112427,2,
R2369,rayaré,718,word,1,False,5,5.471815824508667,1,
R2369,sumabas,719,word,1,False,5,0.919907808303833,1,
R2369,retábamos,720,word,1,False,5,1.3689053058624268,1,
R2369,uníamos,721,word,1,False,5,5.093947887420654,1,
R2369,sauabas,722,word,1,True,5,0.8169152736663818,2,
R2369,bruvían,723,word,1,True,5,1.265049934387207,2,
R2369,faltaría,724,word,2,True,5,1.196915864944458,1,
R2369,cisaremos,725,word,1,True,5,1.6217737197875977,2,
R2369,fanían,726,word,1,True,5,1.868973731994629,2,
R2369,luchaba,727,word,2,True,5,1.201775312423706,1,
R2369,meteríamos,728,word,2,True,5,1.7000250816345215,1,
R2369,gruñiríamos,729,word,1,False,5,0.7986009120941162,1,
R2369,tupliría,730,word,1,True,5,0.8260040283203125,2,
R2369,fundiremos,731,word,1,False,5,2.1610498428344727,1,
R2369,focábamos,732,word,1,True,5,2.8199119567871094,2,
R2369,bailarían,733,word,2,True,5,1.0251660346984863,1,
R2369,lailarías,734,word,1,True,5,0.7510030269622803,2,
R2369,tuplías,735,word,1,True,5,0.7518877983093262,2,
R2369,pactaré,736,word,2,True,5,1.7668559551239014,1,
R2369,uniré,737,word,1,False,5,5.997497797012329,1,
R2369,corríamos,738,word,2,True,5,0.8639829158782959,1,
R2369,barreríamos,739,word,2,True,5,2.132093906402588,1,
R2369,frinderá,740,word,1,True,5,1.0669710636138916,2,
R2369,quemarían,741,word,1,False,5,1.3640878200531006,1,
R2369,poríamos,742,word,2,False,5,0.8079259395599365,2,
R2369,lamíamos,743,word,1,False,5,1.2728047370910645,1,
R2369,cumplías,744,word,2,True,5,0.7088658809661865,1,
R2369,sufrirán,745,word,2,True,5,0.9199111461639404,1,
R2369,vendías,746,word,2,True,5,0.987156867980957,1,
R2369,obraban,747,word,1,False,5,2.89996600151062,1,
R2369,narraría,748,word,1,False,5,3.735247850418091,1,
R2369,cetaría,749,word,1,True,5,1.1819169521331787,2,
R2369,pavaría,750,word,1,True,5,2.190073251724243,2,
R2369,tujiré,751,word,1,True,5,0.8580269813537598,2,
R2369,bailaremos,752,word,2,True,5,0.9010508060455322,1,
R2369,cisaré,753,word,1,True,5,0.8200991153717041,2,
R2369,riteré,754,word,1,True,5,2.493983268737793,2,
R2369,cortarían,755,word,2,True,5,2.142813205718994,1,
R2369,meterías,756,word,2,True,5,1.2319059371948242,1,
R2369,obraremos,757,word,1,False,5,3.4219789505004883,1,
R2369,seserías,758,word,1,True,5,1.6880450248718262,2,
R2369,frinderé,759,word,1,True,5,1.0748121738433838,2,
R2369,chanrarías,760,word,1,True,5,0.923774242401123,2,
R2369,quemabas,761,word,2,True,5,4.5931010246276855,1,
R2369,pavarás,762,word,1,True,5,1.0080301761627197,2,
R2369,barrerán,763,word,1,False,5,6.315119743347168,1,
R2369,faneríamos,764,word,1,True,5,1.2249650955200195,2,
R2369,cisábamos,765,word,1,True,5,0.7729940414428711,2,
R2369,imiríamos,766,word,1,True,5,4.0644941329956055,2,
R2369,tuplirán,767,word,1,True,5,0.9509706497192383,2,
R2369,focarías,768,word,1,True,5,1.286006212234497,2,
R2369,cederían,769,word,1,False,5,1.762010097503662,1,
R2369,gruñían,770,word,1,False,5,0.8279390335083008,1,
R2369,burrará,771,word,2,False,5,1.4200031757354736,2,
R2369,cumplirás,772,word,2,True,5,1.2509479522705078,1,
R2369,galábamos,773,word,1,True,5,2.0439248085021973,2,
R2369,ritías,774,word,1,True,5,1.515873908996582,2,
R2369,frindíamos,775,word,1,True,5,0.8939099311828613,2,
R2369,nadaba,776,word,1,False,5,1.5049479007720947,1,
R2369,sindaban,777,word,1,True,5,1.5572831630706787,2,
R2369,somería,778,word,1,True,5,3.4330897331237793,2,
R2369,casarás,779,word,2,True,5,4.098066806793213,1,
R2369,lorgaban,780,word,2,False,5,2.6028571128845215,2,
R2369,imirán,781,word,1,True,6,7.219203948974609,2,
R2369,zusabas,782,word,1,True,6,1.9038970470428467,2,
R2369,bigaría,783,word,1,True,6,2.4330790042877197,2,
R2369,tujiremos,784,word,1,True,6,2.8259987831115723,2,
R2369,moncerían,785,word,1,True,6,3.453943967819214,2,
R2369,lucharían,786,word,2,True,6,1.0889148712158203,1,
R2369,cosían,787,word,1,False,6,4.2462897300720215,1,
R2369,cumpliría,788,word,2,True,6,1.6863880157470703,1,
R2369,zusarán,789,word,1,True,6,5.014201879501343,2,
R2369,cederé,790,word,1,False,6,1.4158711433410645,1,
R2369,casarán,791,word,1,False,6,2.833937168121338,1,
R2369,honderé,792,word,1,True,6,0.9230260848999023,2,
R2369,vultarán,793,word,2,False,6,5.152186870574951,2,
R2369,charlaban,794,word,1,False,6,1.3488519191741943,1,
R2369,eplaban,795,word,1,True,6,0.8960161209106445,2,
R2369,somerás,796,word,1,True,6,2.646061897277832,2,
R2369,venderán,797,word,2,True,6,1.182919979095459,1,
R2369,ceteremos,798,word,1,True,6,2.1470611095428467,2,
R2369,tuplirás,799,word,1,True,6,1.1899731159210205,2,
R2369,rimarán,800,word,1,False,6,3.846040964126587,1,
R2369,arderán,801,word,2,True,6,6.152262926101685,1,
R2369,prendías,802,word,2,True,6,1.04298996925354,1,
R2369,comería,803,word,2,True,6,1.8445460796356201,1,
R2369,mardían,804,word,1,True,6,3.8470089435577393,2,
R2369,bruvirías,805,word,1,True,6,1.5178570747375488,2,
R2369,galarían,806,word,1,True,6,4.597011089324951,2,
R2369,narrabas,807,word,1,False,6,4.5540900230407715,1,
R2369,besaban,808,word,2,True,6,0.8719940185546875,1,
R2369,rimaría,809,word,1,False,6,2.977100133895874,1,
R2369,charlaría,810,word,1,False,6,0.805994987487793,1,
R2369,tujías,811,word,1,True,6,0.880181074142456,2,
R2369,cichirá,812,word,1,True,6,0.8259477615356445,2,
R2369,fundíamos,813,word,1,False,6,1.5500071048736572,1,
R2369,cetía,814,word,1,True,6,1.362994909286499,2,
R2369,sindarías,815,word,1,True,6,1.9220280647277832,2,
R2369,barría,816,word,2,True,6,1.4838781356811523,1,
R2369,rotaba,817,word,1,False,6,2.571286916732788,1,
R2369,gruñiría,818,word,1,False,6,0.7910339832305908,1,
R2369,galarás,819,word,1,True,6,1.0239334106445312,2,
R2369,bigará,820,word,1,True,6,0.9430499076843262,2,
R2369,sesería,821,word,1,True,6,0.8819878101348877,2,
R2369,sumaban,822,word,1,False,6,3.7149100303649902,1,
R2369,somía,823,word,1,True,6,1.473022222518921,2,
R2369,lailarán,824,word,1,True,6,0.8090779781341553,2,
R2369,quemará,825,word,2,True,6,4.2950592041015625,1,
R2369,subirá,826,word,1,False,6,4.988988161087036,1,
R2369,cetaríamos,827,word,1,True,6,3.728038787841797,2,
R2369,ceflía,828,word,1,True,6,0.7963569164276123,2,
R2369,charlaré,829,word,1,False,6,3.1470799446105957,1,
R2369,comerá,830,word,2,True,6,0.9960217475891113,1,
R2369,luchabas,831,word,2,True,6,1.2415733337402344,1,
R2369,burraría,832,word,1,True,6,1.9890449047088623,2,
R2369,correríamos,833,word,2,True,6,0.8369410037994385,1,
R2369,barrerían,834,word,2,True,6,1.4159290790557861,1,
R2369,arderemos,835,word,1,False,6,3.737088918685913,1,
R2369,bigarás,836,word,1,True,6,1.0187819004058838,2,
R2369,bruvíamos,837,word,1,True,6,0.9388449192047119,2,
R2369,ceteré,838,word,1,True,6,0.8630781173706055,2,
R2369,vultaban,839,word,2,False,6,0.9421072006225586,2,
R2369,sumaré,840,word,1,False,6,1.7651400566101074,1,
R2369,gruñiré,841,word,1,False,6,0.8129398822784424,1,
R2369,vultaba,842,word,2,False,6,1.9415569305419922,2,
R2369,moncerás,843,word,1,True,6,2.5248608589172363,2,
R2369,sesías,844,word,1,True,6,0.9289820194244385,2,
R2369,quemaré,845,word,2,True,6,4.989245891571045,1,
R2369,cedíamos,846,word,1,False,6,5.088982105255127,1,
R2369,lacherán,847,word,1,True,6,2.7349162101745605,2,
R2369,narraremos,848,word,1,False,6,5.308270215988159,1,
R2369,ceflería,849,word,1,True,6,0.9619898796081543,2,
R2369,bigábamos,850,word,1,True,6,0.8037779331207275,2,
R2369,lucharías,851,word,2,True,6,0.9260542392730713,1,
R2369,cubría,852,word,2,True,6,1.2089200019836426,1,
R2369,quemaba,853,word,2,True,6,3.3359618186950684,1,
R2369,seseré,854,word,1,True,6,1.030776023864746,2,
R2369,runaríamos,855,word,1,True,6,3.2320361137390137,2,
R2369,chanraba,856,word,1,True,6,1.8259618282318115,2,
R2369,anrerá,857,word,2,False,6,4.588129997253418,2,
R2369,seserán,858,word,1,True,6,0.9572908878326416,2,
R2369,seseríamos,859,word,1,True,6,1.079909086227417,2,
R2369,cuarríamos,860,word,2,False,6,4.675210952758789,2,
R2369,arderá,861,word,2,True,6,2.1969687938690186,1,
R2369,lacherían,862,word,1,True,6,1.0256450176239014,2,
R2369,cortaríamos,863,word,2,True,6,1.017077922821045,1,
R2369,casaban,864,word,2,True,6,6.206176996231079,1,
R2369,fanerías,865,word,1,True,6,0.9751729965209961,2,
R2369,lameremos,866,word,1,False,6,0.9070432186126709,1,
R2369,cetará,867,word,1,True,6,1.6749460697174072,2,
R2369,quijaríamos,868,word,1,True,6,2.7490429878234863,2,
R2369,cichiremos,869,word,1,True,6,0.8119831085205078,2,
R2369,bailaríamos,870,word,2,True,6,0.966911792755127,1,
R2369,cumplían,871,word,2,True,6,0.7657210826873779,1,
R2369,morderás,872,word,2,True,6,2.4560630321502686,1,
R2369,sumarás,873,word,1,False,6,0.9800469875335693,1,
R2369,cichían,874,word,1,True,6,0.8318378925323486,2,
R2369,cenaban,875,word,2,True,6,2.9379589557647705,1,
R2369,rimarías,876,word,1,False,6,1.9859018325805664,1,
R2369,quemarán,877,word,2,True,6,3.244980812072754,1,
R2369,lailaba,878,word,1,True,6,0.9890129566192627,2,
R2369,bigabas,879,word,1,True,6,0.891974925994873,2,
R2369,cortabas,880,word,2,True,6,1.077049970626831,1,
R2369,tujirías,881,word,1,True,6,8.350084066390991,2,
R2369,arderíamos,882,word,1,False,6,1.4699032306671143,1,
R2369,faltaremos,883,word,2,True,6,4.081992864608765,1,
R2369,lamerá,884,word,1,False,6,0.8768460750579834,1,
R2369,runaremos,885,word,1,True,6,1.6669871807098389,2,
R2369,cortarán,886,word,2,True,6,1.0328409671783447,1,
R2369,cichirán,887,word,1,True,6,0.9970052242279053,2,
R2369,quijarían,888,word,1,True,6,2.253075361251831,2,
R2369,honderá,889,word,1,True,6,0.7589569091796875,2,
R2369,barrían,890,word,2,True,6,1.2249152660369873,1,
R2369,sindarían,891,word,1,True,6,0.9028491973876953,2,
R2369,lameré,892,word,1,False,6,0.7258777618408203,1,
R2369,anrería,893,word,2,False,6,7.150223970413208,2,
R2369,obraría,894,word,1,False,6,2.8628909587860107,1,
R2369,cetábamos,895,word,1,True,6,3.0999526977539062,2,
R2369,pactaría,896,word,1,False,6,7.018187999725342,1,
R2369,focarían,897,word,1,True,6,1.291944980621338,2,
R2369,pavaremos,898,word,1,True,6,1.2024052143096924,2,
R2369,faltaré,899,word,2,True,6,1.1880130767822266,1,
R2369,bigarías,900,word,1,True,6,0.825958251953125,2,
R2369,jurarías,901,word,2,True,6,0.7837193012237549,1,
R2369,cubrirás,902,word,2,True,6,0.9249680042266846,1,
R2369,cumplirían,903,word,2,True,6,0.765859842300415,1,
R2369,tujirá,904,word,1,True,6,1.505943775177002,2,
R2369,mardiríamos,905,word,1,True,6,2.6420161724090576,2,
R2369,imirías,906,word,1,True,6,5.527057886123657,2,
R2369,prenderías,907,word,2,True,6,0.9719891548156738,1,
R2369,comía,908,word,2,True,6,1.000474214553833,1,
R2369,cisabas,909,word,1,True,6,4.787070989608765,2,
R2369,barreremos,910,word,2,True,6,3.995983123779297,1,
R2369,bimaríamos,911,word,1,True,6,1.4179811477661133,2,
R2369,burrarías,912,word,1,True,6,1.0150699615478516,2,
R2369,sufrirías,913,word,2,True,6,1.0728559494018555,1,
R2369,maftará,914,word,1,True,6,0.8430218696594238,2,
R2369,cuarrirán,915,word,1,True,6,2.898047924041748,2,
R2369,narraré,916,word,1,False,6,0.8000290393829346,1,
R2369,cenaríamos,917,word,2,True,6,2.793835163116455,1,
R2369,sauaríamos,918,word,1,True,6,0.8340001106262207,2,
R2369,eplaría,919,word,1,True,6,0.837874174118042,2,
R2369,cubríamos,920,word,2,True,6,1.0691258907318115,1,
R2369,prenderás,921,word,2,True,6,1.3020250797271729,1,
R2369,cuarrían,922,word,1,True,6,2.8798837661743164,2,
R2369,moncíamos,923,word,1,True,6,6.6701719760894775,2,
R2369,lamería,924,word,1,False,6,0.9421291351318359,1,
R2369,prendíamos,925,word,2,True,6,0.9699420928955078,1,
R2369,coserá,926,word,1,False,6,5.129106283187866,1,
R2369,meteremos,927,word,2,True,6,2.320830821990967,1,
R2369,obrarán,928,word,1,False,6,5.049164056777954,1,
R2369,mardirías,929,word,1,True,6,0.9319601058959961,2,
R2369,quijaban,930,word,1,True,6,1.3678898811340332,2,
R2369,subirían,931,word,1,False,6,3.4540762901306152,1,
R2369,rayará,932,word,2,True,6,5.638213157653809,1,
R2369,partirá,933,word,2,True,6,3.1857731342315674,1,
R2369,bruviremos,934,word,1,True,6,1.475919246673584,2,
R2369,cetabas,935,word,1,True,6,3.626769781112671,2,
R2369,cubrías,936,word,2,True,6,1.160904884338379,1,
R2369,bigarían,937,word,1,True,7,0.9598739147186279,2,
R2369,rimarás,938,word,1,False,7,8.39610481262207,1,
R2369,retaban,939,word,1,False,7,0.9798321723937988,1,
R2369,lucharán,940,word,2,True,7,0.9409298896789551,1,
R2369,gruñirás,941,word,1,False,7,0.7780919075012207,1,
R2369,quijaría,942,word,1,True,7,2.4573140144348145,2,
R2369,cubriría,943,word,2,True,7,2.5734400749206543,1,
R2369,fundías,944,word,1,False,7,1.5242137908935547,1,
R2369,comerás,945,word,2,True,7,1.5702121257781982,1,
R2369,mordíamos,946,word,2,True,7,2.2812411785125732,1,
R2369,ceflerá,947,word,1,True,7,0.8032252788543701,2,
R2369,cetaba,948,word,1,True,7,1.4924421310424805,2,
R2369,comeríamos,949,word,2,True,7,1.0572118759155273,1,
R2369,ceflerías,950,word,1,True,7,0.8762109279632568,2,
R2369,pavaba,951,word,1,True,7,0.9532887935638428,2,
R2369,temerán,952,word,2,True,7,2.0684168338775635,1,
R2369,gachabas,953,word,2,False,7,1.7273509502410889,2,
R2369,besarás,954,word,2,True,7,0.8543078899383545,1,
R2369,runarás,955,word,1,True,7,3.7992429733276367,2,
R2369,barrerás,956,word,2,True,7,1.6310899257659912,1,
R2369,lacherá,957,word,1,True,7,1.036012887954712,2,
R2369,lorgarías,958,word,2,False,7,2.1610031127929688,2,
R2369,mertaba,959,word,1,True,7,6.432135343551636,2,
R2369,cortaba,960,word,1,False,7,3.5000877380371094,1,
R2369,ciperías,961,word,1,True,7,1.6709601879119873,2,
R2369,rayaba,962,word,1,False,7,4.479211091995239,1,
R2369,temía,963,word,1,False,7,4.774018049240112,1,
R2369,focarás,964,word,2,False,7,3.6520650386810303,2,
R2369,coserán,965,word,2,True,7,2.4741010665893555,1,
R2369,chanrarán,966,word,1,True,7,0.9038960933685303,2,
R2369,bigaríamos,967,word,1,True,7,0.11391711235046387,2,
R2369,cenarían,968,word,2,True,7,7.752272129058838,1,
R2369,focaré,969,word,1,True,7,4.435084104537964,2,
R2369,maftaríamos,970,word,1,True,7,0.8588941097259521,2,
R2369,gruñíamos,971,word,1,False,7,0.8429551124572754,1,
R2369,subirás,972,word,2,True,7,3.1450178623199463,1,
R2369,sindábamos,973,word,1,True,7,0.9830999374389648,2,
R2369,chanraré,974,word,1,True,7,1.231963872909546,2,
R2369,pavaré,975,word,1,True,7,0.7620260715484619,2,
R2369,venderían,976,word,2,True,7,1.3638651371002197,1,
R2369,pactabas,977,word,2,True,7,4.39008903503418,1,
R2369,mertaré,978,word,2,False,7,2.3108701705932617,2,
R2369,frinderás,979,word,1,True,7,1.057051181793213,2,
R2369,lamerías,980,word,1,False,7,0.8799784183502197,1,
R2369,bailaba,981,word,2,True,7,0.823066234588623,1,
R2369,cichías,982,word,1,True,7,0.8071050643920898,2,
R2369,unirá,983,word,2,True,7,3.432896852493286,1,
R2369,jurábamos,984,word,2,True,7,1.048501968383789,1,
R2369,retará,985,word,1,False,7,1.976830005645752,1,
R2369,temían,986,word,2,True,7,4.390022039413452,1,
R2369,luntirás,987,word,1,True,7,1.0659220218658447,2,
R2369,tosíamos,988,word,1,False,7,4.220002174377441,1,
R2369,lorgabas,989,word,2,False,7,1.8368220329284668,2,
R2369,rondábamos,990,word,1,False,7,1.8831486701965332,1,
R2369,bimarías,991,word,1,True,7,0.9469058513641357,2,
R2369,burrarían,992,word,1,True,7,1.6138451099395752,2,
R2369,vultarías,993,word,2,False,7,2.5860519409179688,2,
R2369,formarán,994,word,2,True,7,5.27803373336792,1,
R2369,eplaré,995,word,1,True,7,0.759951114654541,2,
R2369,frindías,996,word,1,True,7,0.9828181266784668,2,
R2369,eplarás,997,word,1,True,7,0.7710919380187988,2,
R2369,cubrirías,998,word,2,True,7,1.9690632820129395,1,
R2369,subirán,999,word,2,True,7,2.054109811782837,1,
R2369,pavará,1000,word,2,False,7,0.741901159286499,2,
R2369,maftaba,1001,word,1,True,7,0.7831361293792725,2,
R2369,juraban,1002,word,2,True,7,0.7550499439239502,1,
R2369,sufriremos,1003,word,2,True,7,0.9749929904937744,1,
R2369,monceré,1004,word,1,True,7,3.846050977706909,2,
R2369,ceterá,1005,word,1,True,7,1.014888048171997,2,
R2369,unirían,1006,word,2,True,7,3.235046148300171,1,
R2369,eplarán,1007,word,1,True,7,0.9391109943389893,2,
R2369,gacharás,1008,word,2,False,7,1.3788762092590332,2,
R2369,chanrábamos,1009,word,1,True,7,1.3259949684143066,2,
R2369,frindían,1010,word,1,True,7,2.105897903442383,2,
R2369,tupliremos,1011,word,1,True,7,0.8888750076293945,2,
R2369,chanrabas,1012,word,1,True,7,0.7930700778961182,2,
R2369,riteremos,1013,word,1,True,7,2.587069272994995,2,
R2369,anrerían,1014,word,1,True,7,4.7781078815460205,2,
R2369,porerá,1015,word,2,False,7,2.3309900760650635,2,
R2369,sumarán,1016,word,1,False,7,1.4968740940093994,1,
R2369,pactarías,1017,word,1,False,7,5.488095998764038,1,
R2369,runaré,1018,word,1,True,7,1.8472650051116943,2,
R2369,frinderemos,1019,word,1,True,7,3.0050811767578125,2,
R2369,somerán,1020,word,1,True,7,1.1249988079071045,2,
R2369,barrerá,1021,word,2,True,7,2.8140101432800293,1,
R2369,eplaríamos,1022,word,1,True,7,1.0589962005615234,2,
R2369,rotaría,1023,word,1,False,7,1.6568608283996582,1,
R2369,temerás,1024,word,1,False,7,5.08495306968689,1,
R2369,rayaría,1025,word,2,True,7,3.6066579818725586,1,
R2369,eplábamos,1026,word,1,True,7,2.3314120769500732,2,
R2369,tosería,1027,word,2,True,7,1.5878770351409912,1,
R2369,rimarían,1028,word,1,False,7,2.5299999713897705,1,
R2369,vultaría,1029,word,2,False,7,3.0020737648010254,2,
R2369,lorgarás,1030,word,2,False,7,1.5909390449523926,2,
R2369,narraríamos,1031,word,1,False,7,4.198049068450928,1,
R2369,cosería,1032,word,2,True,7,1.596876859664917,1,
R2369,bruvirían,1033,word,1,True,7,1.376878023147583,2,
R2369,runarías,1034,word,1,True,7,3.413857936859131,2,
R2369,cetarías,1035,word,1,True,7,1.3070871829986572,2,
R2369,unirán,1036,word,1,False,7,2.778939962387085,1,
R2369,lacherías,1037,word,1,True,7,0.9719491004943848,2,
R2369,narrarán,1038,word,1,False,7,1.1238939762115479,1,
R2369,tujían,1039,word,1,True,7,0.8962130546569824,2,
R2369,focaríamos,1040,word,1,True,7,1.8248701095581055,2,
R2369,cichía,1041,word,1,True,7,0.9018070697784424,2,
R2369,chanraría,1042,word,1,True,7,1.7169229984283447,2,
R2369,zusaré,1043,word,1,True,7,1.1929569244384766,2,
R2369,zusaban,1044,word,1,True,7,1.2612709999084473,2,
R2369,cefleríamos,1045,word,1,True,7,1.028144121170044,2,
R2369,focaría,1046,word,1,True,7,2.385010242462158,2,
R2369,rotábamos,1047,word,1,False,7,2.1419451236724854,1,
R2369,imiría,1048,word,2,False,7,3.023918867111206,2,
R2369,ardía,1049,word,2,True,7,4.512087106704712,1,
R2369,runarán,1050,word,1,True,7,3.494655132293701,2,
R2369,prenderá,1051,word,2,True,7,1.4002139568328857,1,
R2369,pactarás,1052,word,1,False,7,2.9360477924346924,1,
R2369,sumaría,1053,word,1,False,7,1.2571520805358887,1,
R2369,imía,1054,word,1,True,7,2.673940896987915,2,
R2369,anrerías,1055,word,1,True,7,4.1520068645477295,2,
R2369,cetarán,1056,word,1,True,7,1.0300438404083252,2,
R2369,moncías,1057,word,1,True,7,2.033029794692993,2,
R2369,fanías,1058,word,1,True,7,1.5670137405395508,2,
R2369,cetíamos,1059,word,1,True,7,1.1999750137329102,2,
R2369,bailaban,1060,word,2,True,7,0.7509708404541016,1,
R2369,porería,1061,word,2,False,7,1.4526448249816895,2,
R2369,toserás,1062,word,2,True,7,1.3709959983825684,1,
R2369,cuarría,1063,word,2,False,7,4.227006912231445,2,
R2369,faneremos,1064,word,1,True,7,1.0249619483947754,2,
R2369,ciperemos,1065,word,1,True,7,0.841040849685669,2,
R2369,pavábamos,1066,word,1,True,7,0.7740752696990967,2,
R2369,ardías,1067,word,1,False,7,1.5200049877166748,1,
R2369,porerán,1068,word,2,False,7,0.9880766868591309,2,
R2369,someremos,1069,word,1,True,7,0.8718132972717285,2,
R2369,ciperá,1070,word,1,True,7,1.0199918746948242,2,
R2369,rimaré,1071,word,1,False,7,1.5329017639160156,1,
R2369,formarás,1072,word,2,True,7,1.6918001174926758,1,
R2369,vultarás,1073,word,2,False,7,1.2478687763214111,2,
R2369,morderán,1074,word,2,True,7,2.343855142593384,1,
R2369,bailarán,1075,word,2,True,7,0.8090200424194336,1,
R2369,gruñirá,1076,word,1,False,7,3.0764081478118896,1,
R2369,meterás,1077,word,2,True,7,1.4188849925994873,1,
R2369,cisarás,1078,word,1,True,7,4.141005039215088,2,
R2369,lorgará,1079,word,2,False,7,8.019170045852661,2,
R2369,correrás,1080,word,2,True,7,1.1810240745544434,1,
R2369,frinderías,1081,word,1,True,7,4.232343912124634,2,
R2369,sesíamos,1082,word,1,True,7,4.139043092727661,2,
R2369,faltarían,1083,word,2,True,7,0.8739709854125977,1,
R2369,tujíamos,1084,word,1,True,7,3.6060428619384766,2,
R2369,frinderíamos,1085,word,1,True,7,1.5094048976898193,2,
R2369,tuplirá,1086,word,1,True,7,0.8060019016265869,2,
R2369,sauará,1087,word,1,True,7,0.8399560451507568,2,
R2369,partiré,1088,word,2,True,7,3.0249547958374023,1,
R2369,pavaríamos,1089,word,1,True,7,1.4410018920898438,2,
R2369,narrarían,1090,word,1,False,7,0.962852954864502,1,
R2369,bigaré,1091,word,1,True,7,1.1688098907470703,2,
R2369,poreremos,1092,word,2,False,7,1.2321739196777344,2,
