participant,stimuli,trialNum,target_type,response,correct,block,reaction_time,trigger,
R2370,rimaré,1,word,2,True,1,0.8199808597564697,1,
R2370,cedía,2,word,2,True,1,1.6320059299468994,1,
R2370,cedías,3,word,1,False,1,1.5340940952301025,1,
R2370,fundirás,4,word,2,True,1,0.9470188617706299,1,
R2370,mertaremos,5,word,1,True,1,1.2820301055908203,2,
R2370,toserían,6,word,2,True,1,1.0429589748382568,1,
R2370,cichía,7,word,2,False,1,0.9798688888549805,2,
R2370,nadaba,8,word,2,True,1,1.076793909072876,1,
R2370,fundían,9,word,2,True,1,0.8590521812438965,1,
R2370,rondábamos,10,word,2,True,1,0.8080670833587646,1,
R2370,vultarían,11,word,1,True,1,1.1179790496826172,2,
R2370,bailarás,12,word,2,True,1,1.008002758026123,1,
R2370,narraba,13,word,2,True,1,0.8221991062164307,1,
R2370,charlarás,14,word,1,False,1,0.7699880599975586,1,
R2370,formaba,15,word,2,True,1,1.2460505962371826,1,
R2370,sauaríamos,16,word,1,True,1,0.9819469451904297,2,
R2370,sindaría,17,word,1,True,1,1.0431780815124512,2,
R2370,tosían,18,word,2,True,1,0.8314118385314941,1,
R2370,mordía,19,word,2,True,1,0.7628540992736816,1,
R2370,gruñirán,20,word,2,True,1,0.8667359352111816,1,
R2370,pavaría,21,word,1,True,1,0.8550822734832764,2,
R2370,lameríamos,22,word,2,True,1,1.1700029373168945,1,
R2370,bigaré,23,word,1,True,1,1.111928939819336,2,
R2370,bruviríamos,24,word,1,True,1,1.147994041442871,2,
R2370,unirían,25,word,2,True,1,0.8257956504821777,1,
R2370,ciperás,26,word,1,True,1,0.8169200420379639,2,
R2370,subiremos,27,word,2,True,1,0.8710298538208008,1,
R2370,ritía,28,word,1,True,1,0.8509597778320312,2,
R2370,somíamos,29,word,1,True,1,1.057974100112915,2,
R2370,rondarías,30,word,2,True,1,0.7750961780548096,1,
R2370,besábamos,31,word,2,True,1,0.9122099876403809,1,
R2370,eplaremos,32,word,1,True,1,1.0089540481567383,2,
R2370,prendíamos,33,word,2,True,1,0.8979439735412598,1,
R2370,unías,34,word,2,True,1,0.7981419563293457,1,
R2370,maftaremos,35,word,1,True,1,0.7181930541992188,2,
R2370,sindábamos,36,word,1,True,1,1.0230703353881836,2,
R2370,rimaremos,37,word,2,True,1,0.9450771808624268,1,
R2370,fundíamos,38,word,2,True,1,0.7854561805725098,1,
R2370,faltarás,39,word,2,True,1,0.8701009750366211,1,
R2370,tuplían,40,word,1,True,1,0.8309218883514404,2,
R2370,partiré,41,word,2,True,1,0.7609000205993652,1,
R2370,imiría,42,word,1,True,1,0.9617798328399658,2,
R2370,coserías,43,word,2,True,1,0.7608211040496826,1,
R2370,pactarán,44,word,1,False,1,0.8517367839813232,1,
R2370,zusará,45,word,1,True,1,0.795975923538208,2,
R2370,focarás,46,word,1,True,1,1.2654101848602295,2,
R2370,retaba,47,word,2,True,1,0.8509268760681152,1,
R2370,besarían,48,word,2,True,1,0.7870290279388428,1,
R2370,prenderá,49,word,2,True,1,0.8508200645446777,1,
R2370,cisarán,50,word,1,True,1,0.8339018821716309,2,
R2370,casaremos,51,word,2,True,1,0.7760109901428223,1,
R2370,cipería,52,word,1,True,1,0.7739617824554443,2,
R2370,rotábamos,53,word,2,True,1,0.7488529682159424,1,
R2370,burrábamos,54,word,1,True,1,0.8560991287231445,2,
R2370,besaremos,55,word,2,True,1,0.714968204498291,1,
R2370,lorgarían,56,word,1,True,1,2.5741188526153564,2,
R2370,meteremos,57,word,1,False,1,0.9188621044158936,1,
R2370,luntirás,58,word,1,True,1,1.1127099990844727,2,
R2370,cortarás,59,word,2,True,1,0.7799451351165771,1,
R2370,burraríamos,60,word,1,True,1,0.8899550437927246,2,
R2370,bailaré,61,word,2,True,1,0.840813159942627,1,
R2370,pactaba,62,word,1,False,1,0.7099921703338623,1,
R2370,moncerían,63,word,1,True,1,0.66988205909729,2,
R2370,gruñíamos,64,word,2,True,1,0.9074490070343018,1,
R2370,cederá,65,word,1,False,1,0.6890640258789062,1,
R2370,cuarriré,66,word,1,True,1,1.328981876373291,2,
R2370,cenaremos,67,word,2,True,1,0.8610317707061768,1,
R2370,bigaría,68,word,1,True,1,0.6879620552062988,2,
R2370,mertaría,69,word,1,True,1,1.044954776763916,2,
R2370,imiremos,70,word,1,True,1,0.8599820137023926,2,
R2370,bimará,71,word,1,True,1,0.5540318489074707,2,
R2370,eplarán,72,word,1,True,1,0.5269777774810791,2,
R2370,retaremos,73,word,2,True,1,0.7549741268157959,1,
R2370,sumará,74,word,2,True,1,0.9609739780426025,1,
R2370,frindían,75,word,1,True,1,0.7856581211090088,2,
R2370,quemaré,76,word,1,False,1,0.7689268589019775,1,
R2370,toseríamos,77,word,2,True,1,0.9948318004608154,1,
R2370,venderíamos,78,word,2,True,1,0.8229818344116211,1,
R2370,barrerán,79,word,1,False,1,0.9049348831176758,1,
R2370,correrá,80,word,2,True,1,1.5419118404388428,1,
R2370,besaba,81,word,2,True,1,0.6418261528015137,1,
R2370,somías,82,word,1,True,1,0.9499528408050537,2,
R2370,narrarás,83,word,2,True,1,1.0608799457550049,1,
R2370,lorgábamos,84,word,1,True,1,1.045076847076416,2,
R2370,mertarían,85,word,1,True,1,0.9997918605804443,2,
R2370,bigaba,86,word,1,True,1,0.862910270690918,2,
R2370,maftaríamos,87,word,1,True,1,0.846930980682373,2,
R2370,temías,88,word,2,True,1,0.8039460182189941,1,
R2370,quemaremos,89,word,2,True,1,1.083047866821289,1,
R2370,sufrirán,90,word,2,True,1,0.8570020198822021,1,
R2370,honderíamos,91,word,1,True,1,0.7818841934204102,2,
R2370,chanraba,92,word,1,True,1,0.7520830631256104,2,
R2370,cetaba,93,word,1,True,1,0.7946808338165283,2,
R2370,zusaré,94,word,1,True,1,0.9398758411407471,2,
R2370,lucharán,95,word,2,True,1,0.7239770889282227,1,
R2370,fanerás,96,word,1,True,1,0.8988890647888184,2,
R2370,cortará,97,word,2,True,1,0.8068540096282959,1,
R2370,narraría,98,word,2,True,1,0.7950000762939453,1,
R2370,lucharía,99,word,2,True,1,0.8309330940246582,1,
R2370,tupliría,100,word,1,True,1,0.7389161586761475,2,
R2370,rotabas,101,word,2,True,1,0.9210131168365479,1,
R2370,mardías,102,word,1,True,1,0.7938799858093262,2,
R2370,hondía,103,word,1,True,1,0.9349970817565918,2,
R2370,venderemos,104,word,2,True,1,0.7780451774597168,1,
R2370,riteré,105,word,1,True,1,0.7949850559234619,2,
R2370,quijabas,106,word,1,True,1,1.0099828243255615,2,
R2370,imía,107,word,1,True,1,0.9130113124847412,2,
R2370,mordían,108,word,2,True,1,1.0319068431854248,1,
R2370,pactábamos,109,word,2,True,1,1.367906093597412,1,
R2370,meterían,110,word,2,True,1,0.7050628662109375,1,
R2370,quijaríamos,111,word,1,True,1,0.9689280986785889,2,
R2370,cumpliremos,112,word,2,True,1,0.9088859558105469,1,
R2370,sumarán,113,word,2,True,1,0.6648209095001221,1,
R2370,obraría,114,word,1,False,1,0.8627820014953613,1,
R2370,juraría,115,word,2,True,1,0.693925142288208,1,
R2370,monceríamos,116,word,1,True,1,0.8659687042236328,2,
R2370,seseremos,117,word,1,True,1,0.9315650463104248,2,
R2370,lailábamos,118,word,1,True,1,0.8219730854034424,2,
R2370,hondías,119,word,1,True,1,0.8711051940917969,2,
R2370,venderías,120,word,2,True,1,0.8069040775299072,1,
R2370,quijaremos,121,word,1,True,1,1.0119528770446777,2,
R2370,cenarían,122,word,2,True,1,0.7549228668212891,1,
R2370,poríamos,123,word,1,True,1,0.9418928623199463,2,
R2370,ardía,124,word,1,False,1,0.6649670600891113,1,
R2370,maftaría,125,word,1,True,1,0.9028689861297607,2,
R2370,tosías,126,word,2,True,1,0.7859108448028564,1,
R2370,chanrarás,127,word,1,True,1,0.8257710933685303,2,
R2370,sauaría,128,word,1,True,1,1.1700270175933838,2,
R2370,pactará,129,word,2,True,1,1.0189299583435059,1,
R2370,sesían,130,word,1,True,1,0.7897989749908447,2,
R2370,lameremos,131,word,2,True,1,0.8880960941314697,1,
R2370,rondarían,132,word,1,False,1,0.8089840412139893,1,
R2370,cetaré,133,word,1,True,1,0.9858889579772949,2,
R2370,cetaría,134,word,1,True,1,0.6360199451446533,2,
R2370,lamíamos,135,word,2,True,1,0.691756010055542,1,
R2370,cortaban,136,word,2,True,1,0.8221008777618408,1,
R2370,tujiría,137,word,1,True,1,0.7380118370056152,2,
R2370,fundiremos,138,word,2,True,1,1.0490648746490479,1,
R2370,mardía,139,word,1,True,1,1.1419410705566406,2,
R2370,cisaríamos,140,word,1,True,1,0.9939510822296143,2,
R2370,tuplirían,141,word,1,True,1,0.6719169616699219,2,
R2370,quemaban,142,word,2,True,1,0.7400438785552979,1,
R2370,cisarás,143,word,1,True,1,0.7648680210113525,2,
R2370,tujíamos,144,word,1,True,1,0.9329581260681152,2,
R2370,lamerían,145,word,2,True,1,0.8519220352172852,1,
R2370,cumplirán,146,word,2,True,1,1.3619141578674316,1,
R2370,frindía,147,word,1,True,1,0.6918540000915527,2,
R2370,bimabas,148,word,1,True,1,0.9960339069366455,2,
R2370,lamía,149,word,2,True,1,0.6872000694274902,1,
R2370,mertaban,150,word,1,True,1,0.7848896980285645,2,
R2370,burraré,151,word,1,True,1,1.1539280414581299,2,
R2370,galábamos,152,word,1,True,1,1.4549219608306885,2,
R2370,riteremos,153,word,1,True,1,0.82991623878479,2,
R2370,cenaría,154,word,2,True,1,0.7879548072814941,1,
R2370,cipíamos,155,word,1,True,1,0.8740780353546143,2,
R2370,luchaban,156,word,2,True,1,0.9440081119537354,1,
R2370,pavaremos,157,word,1,True,2,2.1755740642547607,2,
R2370,runarán,158,word,1,True,2,0.9508302211761475,2,
R2370,focaremos,159,word,1,True,2,0.7100419998168945,2,
R2370,coseré,160,word,2,True,2,0.630925178527832,1,
R2370,sesías,161,word,1,True,2,0.8768701553344727,2,
R2370,cetías,162,word,1,True,2,0.7171061038970947,2,
R2370,partías,163,word,2,True,2,0.7818589210510254,1,
R2370,sufríamos,164,word,2,True,2,0.6550540924072266,1,
R2370,lailarás,165,word,1,True,2,0.8401310443878174,2,
R2370,honderá,166,word,1,True,2,0.9259200096130371,2,
R2370,tupliremos,167,word,1,True,2,0.8740899562835693,2,
R2370,lachíamos,168,word,2,False,2,0.6900250911712646,2,
R2370,fanía,169,word,1,True,2,0.7770140171051025,2,
R2370,sumarían,170,word,2,True,2,0.9282491207122803,1,
R2370,zusábamos,171,word,1,True,2,0.8983287811279297,2,
R2370,temería,172,word,2,True,2,0.7868468761444092,1,
R2370,toseremos,173,word,2,True,2,0.9063119888305664,1,
R2370,luntirían,174,word,1,True,2,0.7233841419219971,2,
R2370,subirían,175,word,2,True,2,0.777390718460083,1,
R2370,hondíamos,176,word,1,True,2,0.7483229637145996,2,
R2370,cumplirá,177,word,2,True,2,0.7200191020965576,1,
R2370,bimaríamos,178,word,1,True,2,0.7802460193634033,2,
R2370,pavarás,179,word,1,True,2,0.9692239761352539,2,
R2370,ceflíamos,180,word,1,True,2,0.8183348178863525,2,
R2370,morderían,181,word,2,True,2,0.7735249996185303,1,
R2370,cederías,182,word,2,True,2,2.1212711334228516,1,
R2370,luchabas,183,word,2,True,2,0.6331870555877686,1,
R2370,corrías,184,word,2,True,2,0.791151762008667,1,
R2370,cetaríamos,185,word,1,True,2,0.7420947551727295,2,
R2370,cetarán,186,word,1,True,2,0.9042351245880127,2,
R2370,tujía,187,word,1,True,2,1.400418996810913,2,
R2370,cichiré,188,word,1,True,2,0.591209888458252,2,
R2370,rimarías,189,word,2,True,2,0.7033131122589111,1,
R2370,cosíamos,190,word,2,True,2,1.1242377758026123,1,
R2370,casarías,191,word,2,True,2,0.6329278945922852,1,
R2370,barreremos,192,word,1,False,2,0.6519341468811035,1,
R2370,pavaré,193,word,1,True,2,0.8937840461730957,2,
R2370,gachábamos,194,word,1,True,2,0.759108304977417,2,
R2370,lailaban,195,word,1,True,2,0.9289541244506836,2,
R2370,burrarás,196,word,1,True,2,1.078320026397705,2,
R2370,cefleríamos,197,word,1,True,2,0.7559442520141602,2,
R2370,poreremos,198,word,1,True,2,0.6949410438537598,2,
R2370,sauarás,199,word,1,True,2,0.5991568565368652,2,
R2370,lachería,200,word,1,True,2,0.9450087547302246,2,
R2370,faníamos,201,word,1,True,2,0.7750799655914307,2,
R2370,cortaría,202,word,2,True,2,1.0679752826690674,1,
R2370,morderán,203,word,2,True,2,1.687330961227417,1,
R2370,jurábamos,204,word,2,True,2,0.8290421962738037,1,
R2370,charlaban,205,word,2,True,2,0.7889759540557861,1,
R2370,burraremos,206,word,1,True,2,0.8405661582946777,2,
R2370,rotaría,207,word,2,True,2,0.8018388748168945,1,
R2370,ceterás,208,word,1,True,2,1.016767978668213,2,
R2370,sesía,209,word,1,True,2,0.6260089874267578,2,
R2370,quemabas,210,word,2,True,2,0.7780470848083496,1,
R2370,rayaban,211,word,2,True,2,0.7573831081390381,1,
R2370,morderíamos,212,word,2,True,2,0.8230798244476318,1,
R2370,tujiré,213,word,1,True,2,0.7158777713775635,2,
R2370,lorgarás,214,word,1,True,2,1.0401058197021484,2,
R2370,partiría,215,word,2,True,2,1.02593994140625,1,
R2370,narraríamos,216,word,2,True,2,0.7500250339508057,1,
R2370,casaría,217,word,2,True,2,0.7090320587158203,1,
R2370,chanraré,218,word,1,True,2,0.7653701305389404,2,
R2370,gacharía,219,word,1,True,2,0.6460371017456055,2,
R2370,subía,220,word,2,True,2,0.943958044052124,1,
R2370,sufrirían,221,word,2,True,2,0.7380318641662598,1,
R2370,galaría,222,word,1,True,2,0.760004997253418,2,
R2370,burraría,223,word,1,True,2,0.9019007682800293,2,
R2370,temerás,224,word,2,True,2,0.9490082263946533,1,
R2370,burrará,225,word,1,True,2,0.7930679321289062,2,
R2370,quijaba,226,word,1,True,2,0.729050874710083,2,
R2370,charlarían,227,word,2,True,2,0.9940779209136963,1,
R2370,uniré,228,word,2,True,2,0.6468961238861084,1,
R2370,rondarán,229,word,1,False,2,0.698091983795166,1,
R2370,ceflerías,230,word,1,True,2,0.6952090263366699,2,
R2370,ritías,231,word,1,True,2,0.6599349975585938,2,
R2370,poría,232,word,1,True,2,1.0927941799163818,2,
R2370,cumpliríamos,233,word,2,True,2,0.8779900074005127,1,
R2370,lachían,234,word,1,True,2,0.8259289264678955,2,
R2370,narrabas,235,word,2,True,2,0.9579977989196777,1,
R2370,riterían,236,word,1,True,2,1.0279192924499512,2,
R2370,obraré,237,word,2,True,2,0.9549250602722168,1,
R2370,mertabas,238,word,1,True,2,0.6969711780548096,2,
R2370,cortarían,239,word,2,True,2,0.7140917778015137,1,
R2370,eplábamos,240,word,1,True,2,0.7439517974853516,2,
R2370,sufrían,241,word,2,True,2,0.7199618816375732,1,
R2370,fanías,242,word,1,True,2,0.6650841236114502,2,
R2370,metíamos,243,word,2,True,2,0.8278648853302002,1,
R2370,gruñía,244,word,2,True,2,0.9558982849121094,1,
R2370,lorgarías,245,word,1,True,2,0.8250386714935303,2,
R2370,correrán,246,word,2,True,2,0.8221502304077148,1,
R2370,cortaremos,247,word,2,True,2,0.8687560558319092,1,
R2370,fundiría,248,word,2,True,2,1.0249769687652588,1,
R2370,mardíamos,249,word,1,True,2,0.9467709064483643,2,
R2370,luntirán,250,word,2,False,2,0.7789440155029297,2,
R2370,nadábamos,251,word,2,True,2,0.922968864440918,1,
R2370,gruñirás,252,word,2,True,2,0.8030400276184082,1,
R2370,bruvíamos,253,word,1,True,2,0.7691128253936768,2,
R2370,maftaban,254,word,1,True,2,1.5489208698272705,2,
R2370,cefleremos,255,word,1,True,2,0.6588151454925537,2,
R2370,cisabas,256,word,1,True,2,0.7360363006591797,2,
R2370,jurarán,257,word,2,True,2,0.7209579944610596,1,
R2370,mardiré,258,word,1,True,2,0.8358371257781982,2,
R2370,subirías,259,word,2,True,2,0.7330608367919922,1,
R2370,luntiremos,260,word,1,True,2,0.7419242858886719,2,
R2370,besarías,261,word,2,True,2,0.8359849452972412,1,
R2370,focabas,262,word,1,True,2,1.072939157485962,2,
R2370,lacherían,263,word,1,True,2,0.8679890632629395,2,
R2370,partirían,264,word,1,False,2,0.9218728542327881,1,
R2370,retará,265,word,2,True,2,1.214820146560669,1,
R2370,mertarán,266,word,1,True,2,1.5790610313415527,2,
R2370,vultaré,267,word,1,True,2,1.122769832611084,2,
R2370,cipían,268,word,1,True,2,0.8000209331512451,2,
R2370,anría,269,word,1,True,2,0.7510037422180176,2,
R2370,runarás,270,word,1,True,2,0.9659290313720703,2,
R2370,focaríamos,271,word,1,True,2,1.213888168334961,2,
R2370,lacherá,272,word,1,True,2,0.6780238151550293,2,
R2370,somerá,273,word,1,True,2,0.6149189472198486,2,
R2370,formabas,274,word,2,True,2,0.9339840412139893,1,
R2370,lacherán,275,word,1,True,2,0.6668970584869385,2,
R2370,riterán,276,word,1,True,2,0.6978309154510498,2,
R2370,faltaremos,277,word,2,True,2,0.7390141487121582,1,
R2370,zusaremos,278,word,1,True,2,1.6080808639526367,2,
R2370,runará,279,word,1,True,2,0.816709041595459,2,
R2370,gachaban,280,word,1,True,2,0.6418352127075195,2,
R2370,arderías,281,word,2,True,2,0.9960479736328125,1,
R2370,tosía,282,word,2,True,2,0.8468708992004395,1,
R2370,chanraban,283,word,1,True,2,0.7329332828521729,2,
R2370,riteríamos,284,word,1,True,2,1.3760721683502197,2,
R2370,zusabas,285,word,1,True,2,0.6999070644378662,2,
R2370,cumpliría,286,word,2,True,2,0.9749009609222412,1,
R2370,cenaba,287,word,2,True,2,0.7790780067443848,1,
R2370,vendía,288,word,2,True,2,0.6489331722259521,1,
R2370,obraba,289,word,2,True,2,0.659888744354248,1,
R2370,prenderían,290,word,2,True,2,1.2700917720794678,1,
R2370,coserá,291,word,2,True,2,0.7268640995025635,1,
R2370,comerías,292,word,2,True,2,0.7240140438079834,1,
R2370,gruñías,293,word,2,True,2,0.7520458698272705,1,
R2370,bimábamos,294,word,1,True,2,0.9108390808105469,2,
R2370,tuplías,295,word,1,True,2,0.9330737590789795,2,
R2370,casaba,296,word,2,True,2,1.0029361248016357,1,
R2370,porerá,297,word,1,True,2,0.8940508365631104,2,
R2370,gruñiría,298,word,2,True,2,1.5189619064331055,1,
R2370,frindías,299,word,1,True,2,0.8470439910888672,2,
R2370,meteré,300,word,2,True,2,1.1189560890197754,1,
R2370,arderá,301,word,2,True,2,0.9610657691955566,1,
R2370,burrarías,302,word,1,True,2,0.9169051647186279,2,
R2370,gruñirías,303,word,2,True,2,0.9080030918121338,1,
R2370,retaría,304,word,2,True,2,0.7819678783416748,1,
R2370,mardirás,305,word,1,True,2,1.0440011024475098,2,
R2370,imirás,306,word,1,True,2,0.9728891849517822,2,
R2370,nadaríamos,307,word,2,True,2,0.7439670562744141,1,
R2370,ceflerás,308,word,1,True,2,0.7499880790710449,2,
R2370,moncerá,309,word,1,True,2,0.8017847537994385,2,
R2370,cedíamos,310,word,1,False,2,0.6559059619903564,1,
R2370,cuarrían,311,word,1,True,2,1.543083906173706,2,
R2370,sindaremos,312,word,1,True,2,0.7798619270324707,2,
R2370,barría,313,word,2,True,3,1.3620569705963135,1,
R2370,ardería,314,word,2,True,3,0.7839169502258301,1,
R2370,lailaría,315,word,1,True,3,0.846343994140625,2,
R2370,rondaré,316,word,1,False,3,1.3219258785247803,1,
R2370,cederían,317,word,2,True,3,1.0428380966186523,1,
R2370,formaré,318,word,2,True,3,0.7130601406097412,1,
R2370,riterías,319,word,1,True,3,0.7819561958312988,2,
R2370,rimaría,320,word,2,True,3,0.9019801616668701,1,
R2370,focarías,321,word,1,True,3,1.2601940631866455,2,
R2370,faltará,322,word,2,True,3,1.2256708145141602,1,
R2370,moncía,323,word,1,True,3,0.8390610218048096,2,
R2370,sauarán,324,word,1,True,3,0.7340242862701416,2,
R2370,fanerías,325,word,1,True,3,1.2809569835662842,2,
R2370,rotaremos,326,word,2,True,3,0.9040541648864746,1,
R2370,nadaré,327,word,2,True,3,1.796098232269287,1,
R2370,vultarás,328,word,1,True,3,0.8930008411407471,2,
R2370,anrerás,329,word,1,True,3,0.8311328887939453,2,
R2370,pactabas,330,word,2,True,3,1.078549861907959,1,
R2370,maftaba,331,word,1,True,3,0.8909330368041992,2,
R2370,anrerá,332,word,1,True,3,0.8280739784240723,2,
R2370,imíamos,333,word,1,True,3,0.8549439907073975,2,
R2370,tujías,334,word,1,True,3,1.8840551376342773,2,
R2370,lacheremos,335,word,1,True,3,1.660193920135498,2,
R2370,bigaremos,336,word,1,True,3,0.8200030326843262,2,
R2370,coserán,337,word,2,True,3,0.7307889461517334,1,
R2370,cisaba,338,word,1,True,3,1.3110289573669434,2,
R2370,mordería,339,word,2,True,3,0.9930760860443115,1,
R2370,besaré,340,word,2,True,3,0.8698749542236328,1,
R2370,bailarán,341,word,2,True,3,0.8960881233215332,1,
R2370,rotarían,342,word,2,True,3,1.0435237884521484,1,
R2370,gruñirían,343,word,2,True,3,1.1028342247009277,1,
R2370,subíamos,344,word,2,True,3,0.6668851375579834,1,
R2370,runarían,345,word,2,False,3,0.61126708984375,2,
R2370,ciperé,346,word,1,True,3,0.8038351535797119,2,
R2370,obrará,347,word,2,True,3,1.0740139484405518,1,
R2370,bruvirá,348,word,1,True,3,0.9159610271453857,2,
R2370,hondería,349,word,1,True,3,1.472797155380249,2,
R2370,luntirías,350,word,1,True,3,1.7131109237670898,2,
R2370,ritían,351,word,1,True,3,0.6228702068328857,2,
R2370,nadaría,352,word,2,True,3,0.7879190444946289,1,
R2370,frinderías,353,word,1,True,3,0.7699949741363525,2,
R2370,rimábamos,354,word,2,True,3,0.8637650012969971,1,
R2370,cederás,355,word,1,False,3,0.906944990158081,1,
R2370,uniría,356,word,2,True,3,0.7100059986114502,1,
R2370,mordías,357,word,2,True,3,1.6159789562225342,1,
R2370,prenderíamos,358,word,1,False,3,1.0734500885009766,1,
R2370,nadarán,359,word,2,True,3,0.8018639087677002,1,
R2370,retaré,360,word,2,True,3,0.8361129760742188,1,
R2370,bruvirías,361,word,1,True,3,0.7159609794616699,2,
R2370,cubrirías,362,word,2,True,3,1.111940860748291,1,
R2370,metía,363,word,1,False,3,0.3763110637664795,1,
R2370,narraban,364,word,2,True,3,1.693976879119873,1,
R2370,tujirías,365,word,1,True,3,0.9098801612854004,2,
R2370,cuarrirían,366,word,1,True,3,1.574894905090332,2,
R2370,sumaría,367,word,2,True,3,1.311838150024414,1,
R2370,lameré,368,word,2,True,3,0.8069639205932617,1,
R2370,lorgaremos,369,word,1,True,3,0.9499020576477051,2,
R2370,cumplirás,370,word,2,True,3,0.7868969440460205,1,
R2370,seseré,371,word,1,True,3,0.8271710872650146,2,
R2370,cuarrirán,372,word,1,True,3,2.144874095916748,2,
R2370,honderían,373,word,1,True,3,0.8580131530761719,2,
R2370,rondaremos,374,word,2,True,3,1.0879490375518799,1,
R2370,mardirán,375,word,1,True,3,1.6639440059661865,2,
R2370,faltabas,376,word,2,True,3,1.2022361755371094,1,
R2370,mardirá,377,word,1,True,3,0.9368360042572021,2,
R2370,pavaba,378,word,1,True,3,1.7260429859161377,2,
R2370,runaría,379,word,1,True,3,0.7927548885345459,2,
R2370,temeré,380,word,2,True,3,1.2310142517089844,1,
R2370,sumarías,381,word,2,True,3,1.0449340343475342,1,
R2370,cortarías,382,word,2,True,3,0.9339227676391602,1,
R2370,prendías,383,word,2,True,3,0.9328479766845703,1,
R2370,cuarríamos,384,word,1,True,3,0.7360069751739502,2,
R2370,formaban,385,word,2,True,3,0.8187839984893799,1,
R2370,retaban,386,word,2,True,3,0.6710331439971924,1,
R2370,cuarrirás,387,word,1,True,3,1.1891040802001953,2,
R2370,juraba,388,word,2,True,3,0.9369688034057617,1,
R2370,anrían,389,word,1,True,3,0.6949779987335205,2,
R2370,chanrarían,390,word,1,True,3,0.9211752414703369,2,
R2370,subirá,391,word,2,True,3,0.7668609619140625,1,
R2370,quijarás,392,word,1,True,3,1.0361199378967285,2,
R2370,cetería,393,word,1,True,3,1.720062017440796,2,
R2370,obrarías,394,word,2,True,3,0.8309509754180908,1,
R2370,maftará,395,word,1,True,3,0.7420239448547363,2,
R2370,retarías,396,word,2,True,3,2.193894863128662,1,
R2370,tujirá,397,word,1,True,3,2.284916877746582,2,
R2370,arderemos,398,word,2,True,3,1.1561040878295898,1,
R2370,lamería,399,word,2,True,3,0.8940470218658447,1,
R2370,rimabas,400,word,2,True,3,0.9330861568450928,1,
R2370,tuplirán,401,word,1,True,3,0.6999480724334717,2,
R2370,meteríamos,402,word,2,True,3,1.1769309043884277,1,
R2370,comerá,403,word,2,True,3,0.8759407997131348,1,
R2370,maftabas,404,word,1,True,3,0.8040602207183838,2,
R2370,lacheré,405,word,1,True,3,1.5299718379974365,2,
R2370,partirán,406,word,2,True,3,0.6548411846160889,1,
R2370,coseríamos,407,word,2,True,3,0.7371230125427246,1,
R2370,cortaba,408,word,2,True,3,0.7388889789581299,1,
R2370,cichías,409,word,1,True,3,0.7660081386566162,2,
R2370,cipías,410,word,1,True,3,1.311884880065918,2,
R2370,subían,411,word,2,True,3,0.7390239238739014,1,
R2370,fundiríamos,412,word,2,True,3,1.9790358543395996,1,
R2370,bailaríamos,413,word,2,True,3,1.7562501430511475,1,
R2370,rayaremos,414,word,2,True,3,0.9488639831542969,1,
R2370,sumaremos,415,word,2,True,3,1.608041763305664,1,
R2370,formarán,416,word,2,True,3,1.4530632495880127,1,
R2370,sumaban,417,word,2,True,3,0.8019282817840576,1,
R2370,gruñirá,418,word,2,True,3,1.0528759956359863,1,
R2370,arderás,419,word,2,True,3,1.4382152557373047,1,
R2370,cortaríamos,420,word,2,True,3,2.0717861652374268,1,
R2370,metías,421,word,2,True,3,0.7430298328399658,1,
R2370,lailaríamos,422,word,1,True,3,0.8159818649291992,2,
R2370,imirá,423,word,1,True,3,1.6288719177246094,2,
R2370,jurarás,424,word,2,True,3,1.250194787979126,1,
R2370,moncías,425,word,1,True,3,0.856971025466919,2,
R2370,obrarían,426,word,2,True,3,3.0950591564178467,1,
R2370,casabas,427,word,2,True,3,1.054940938949585,1,
R2370,honderé,428,word,1,True,3,1.5179312229156494,2,
R2370,quijaban,429,word,1,True,3,1.0319600105285645,2,
R2370,cenará,430,word,2,True,3,0.6109921932220459,1,
R2370,tujiremos,431,word,1,True,3,0.7018671035766602,2,
R2370,rimaba,432,word,2,True,3,0.7985730171203613,1,
R2370,porerán,433,word,1,True,3,0.8228127956390381,2,
R2370,vultaba,434,word,1,True,3,0.8639941215515137,2,
R2370,lamerás,435,word,2,True,3,1.6859691143035889,1,
R2370,vultaban,436,word,1,True,3,1.6177759170532227,2,
R2370,unía,437,word,2,True,3,1.035942792892456,1,
R2370,ceflías,438,word,1,True,3,0.8439838886260986,2,
R2370,lailaba,439,word,1,True,3,1.1839842796325684,2,
R2370,obraríamos,440,word,2,True,3,3.152001142501831,1,
R2370,narrarían,441,word,2,True,3,0.9449632167816162,1,
R2370,lamías,442,word,2,True,3,0.7189197540283203,1,
R2370,cortaré,443,word,2,True,3,0.7319679260253906,1,
R2370,formarías,444,word,2,True,3,0.8820521831512451,1,
R2370,sauará,445,word,1,True,3,0.7079267501831055,2,
R2370,luntías,446,word,1,True,3,1.8219571113586426,2,
R2370,ceteremos,447,word,1,True,3,0.9658868312835693,2,
R2370,seserías,448,word,1,True,3,1.9060890674591064,2,
R2370,eplaban,449,word,1,True,3,0.703970193862915,2,
R2370,barríamos,450,word,2,True,3,1.0330159664154053,1,
R2370,lacheríamos,451,word,1,True,3,1.1920678615570068,2,
R2370,temía,452,word,2,True,3,0.7649400234222412,1,
R2370,mertarás,453,word,1,True,3,1.068871021270752,2,
R2370,cisaría,454,word,1,True,3,0.8128998279571533,2,
R2370,correría,455,word,2,True,3,0.8179361820220947,1,
R2370,gachabas,456,word,1,True,3,1.1618561744689941,2,
R2370,bruvían,457,word,1,True,3,1.0119297504425049,2,
R2370,cosías,458,word,2,True,3,0.7549910545349121,1,
R2370,zusarían,459,word,1,True,3,0.7038390636444092,2,
R2370,cuarrirías,460,word,1,True,3,1.8930842876434326,2,
R2370,mertaba,461,word,1,True,3,1.074760913848877,2,
R2370,zusaríamos,462,word,1,True,3,0.7149667739868164,2,
R2370,rayaba,463,word,1,False,3,0.5950038433074951,1,
R2370,vendían,464,word,2,True,3,0.6669390201568604,1,
R2370,rayaría,465,word,2,True,3,0.9908478260040283,1,
R2370,galaré,466,word,1,True,3,0.9041049480438232,2,
R2370,bailaría,467,word,2,True,3,1.3979430198669434,1,
R2370,rotarás,468,word,2,True,3,0.8047561645507812,1,
R2370,eplaríamos,469,word,2,False,4,0.7370679378509521,2,
R2370,sindaré,470,word,1,True,4,1.7864537239074707,2,
R2370,toserá,471,word,2,True,4,0.7433538436889648,1,
R2370,lailarán,472,word,1,True,4,1.034064769744873,2,
R2370,meterás,473,word,2,True,4,1.8768229484558105,1,
R2370,lacherás,474,word,1,True,4,1.292083978652954,2,
R2370,coseremos,475,word,2,True,4,1.3019042015075684,1,
R2370,arderán,476,word,2,True,4,0.7709619998931885,1,
R2370,cederé,477,word,1,False,4,0.9980223178863525,1,
R2370,bailábamos,478,word,2,True,4,0.9380588531494141,1,
R2370,cubriríamos,479,word,2,True,4,0.8100721836090088,1,
R2370,vultabas,480,word,1,True,4,1.0255982875823975,2,
R2370,eplarías,481,word,1,True,4,1.0799658298492432,2,
R2370,cosía,482,word,2,True,4,0.9059638977050781,1,
R2370,lamían,483,word,2,True,4,0.8761131763458252,1,
R2370,charlabas,484,word,2,True,4,0.8550217151641846,1,
R2370,maftaré,485,word,1,True,4,0.8307759761810303,2,
R2370,cuarriremos,486,word,1,True,4,0.9990940093994141,2,
R2370,unirás,487,word,2,True,4,0.7500810623168945,1,
R2370,burrarán,488,word,1,True,4,0.9959430694580078,2,
R2370,rayará,489,word,2,True,4,1.3059890270233154,1,
R2370,focaré,490,word,1,True,4,0.8279471397399902,2,
R2370,frinderíamos,491,word,1,True,4,0.9779839515686035,2,
R2370,gacharemos,492,word,1,True,4,0.6429939270019531,2,
R2370,cetarías,493,word,1,True,4,0.7010350227355957,2,
R2370,subías,494,word,2,True,4,0.9109041690826416,1,
R2370,nadarías,495,word,1,False,4,0.7019469738006592,1,
R2370,maftábamos,496,word,1,True,4,0.825117826461792,2,
R2370,cortarán,497,word,2,True,4,0.7340290546417236,1,
R2370,cubrirás,498,word,2,True,4,0.7970621585845947,1,
R2370,quijábamos,499,word,1,True,4,1.036933183670044,2,
R2370,ardías,500,word,2,True,4,0.7446258068084717,1,
R2370,chanraríamos,501,word,1,True,4,0.8719642162322998,2,
R2370,narraré,502,word,2,True,4,1.2128918170928955,1,
R2370,luntiré,503,word,1,True,4,0.6350109577178955,2,
R2370,venderían,504,word,2,True,4,1.0808870792388916,1,
R2370,luntíamos,505,word,1,True,4,2.6387710571289062,2,
R2370,prenderán,506,word,2,True,4,0.7410309314727783,1,
R2370,bigarían,507,word,1,True,4,0.9138169288635254,2,
R2370,fanería,508,word,1,True,4,0.7570900917053223,2,
R2370,pavará,509,word,1,True,4,1.1588730812072754,2,
R2370,partirás,510,word,1,False,4,0.8383548259735107,1,
R2370,faneremos,511,word,1,True,4,0.64003586769104,2,
R2370,mardiremos,512,word,1,True,4,0.7749710083007812,2,
R2370,formábamos,513,word,2,True,4,0.7078800201416016,1,
R2370,sindaban,514,word,1,True,4,0.8160789012908936,2,
R2370,formaremos,515,word,2,True,4,0.7771100997924805,1,
R2370,pactaremos,516,word,1,False,4,0.7339048385620117,1,
R2370,lacherías,517,word,1,True,4,0.7899918556213379,2,
R2370,bimaría,518,word,1,True,4,0.7051928043365479,2,
R2370,bruviremos,519,word,1,True,4,0.5890369415283203,2,
R2370,cetíamos,520,word,1,True,4,0.9730660915374756,2,
R2370,arderé,521,word,2,True,4,1.244894027709961,1,
R2370,somerías,522,word,1,True,4,0.6889300346374512,2,
R2370,ceteríamos,523,word,1,True,4,0.7490601539611816,2,
R2370,subirán,524,word,2,True,4,4.723137855529785,1,
R2370,porerían,525,word,1,True,4,1.6769769191741943,2,
R2370,mardirías,526,word,1,True,4,1.0012807846069336,2,
R2370,cetábamos,527,word,1,True,4,0.9321379661560059,2,
R2370,gacharé,528,word,1,True,4,1.1259560585021973,2,
R2370,sindaba,529,word,1,True,4,0.6149501800537109,2,
R2370,quemaría,530,word,2,True,4,0.7828807830810547,1,
R2370,bruviría,531,word,1,True,4,0.8149771690368652,2,
R2370,vendíamos,532,word,2,True,4,0.6790359020233154,1,
R2370,metían,533,word,2,True,4,0.8198270797729492,1,
R2370,barrería,534,word,2,True,4,1.0859532356262207,1,
R2370,corríamos,535,word,2,True,4,0.7241086959838867,1,
R2370,bailará,536,word,2,True,4,0.6429319381713867,1,
R2370,formará,537,word,2,True,4,0.7780330181121826,1,
R2370,casarás,538,word,2,True,4,0.6410889625549316,1,
R2370,pactarían,539,word,2,True,4,1.6550240516662598,1,
R2370,faltaríamos,540,word,2,True,4,2.1041672229766846,1,
R2370,cichiría,541,word,2,False,4,1.210968255996704,2,
R2370,temíamos,542,word,2,True,4,1.0189590454101562,1,
R2370,anrería,543,word,1,True,4,0.9901530742645264,2,
R2370,sauaré,544,word,1,True,4,0.9168820381164551,2,
R2370,rayarán,545,word,2,True,4,0.7850232124328613,1,
R2370,rondaría,546,word,1,False,4,1.6260859966278076,1,
R2370,cubriría,547,word,2,True,4,1.1249539852142334,1,
R2370,ritería,548,word,1,True,4,1.0860719680786133,2,
R2370,bailaban,549,word,2,True,4,1.5919532775878906,1,
R2370,correré,550,word,2,True,4,1.2460401058197021,1,
R2370,besaría,551,word,2,True,4,1.2949681282043457,1,
R2370,fundirían,552,word,2,True,4,1.4709248542785645,1,
R2370,pavarían,553,word,1,True,4,1.3860700130462646,2,
R2370,bruviré,554,word,1,True,4,0.6580088138580322,2,
R2370,faneríamos,555,word,1,True,4,0.8811328411102295,2,
R2370,ceteré,556,word,1,True,4,0.771831750869751,2,
R2370,venderás,557,word,2,True,4,2.69303822517395,1,
R2370,charlaremos,558,word,2,True,4,1.9829180240631104,1,
R2370,cenarán,559,word,2,True,4,0.9261109828948975,1,
R2370,chanrabas,560,word,1,True,4,0.9889109134674072,2,
R2370,quemarán,561,word,2,True,4,2.9970710277557373,1,
R2370,ceflían,562,word,1,True,4,0.791923999786377,2,
R2370,gachaba,563,word,1,True,4,0.7678878307342529,2,
R2370,fanían,564,word,1,True,4,0.6341719627380371,2,
R2370,unirán,565,word,2,True,4,1.092864751815796,1,
R2370,galaríamos,566,word,1,True,4,0.8728420734405518,2,
R2370,bimaba,567,word,1,True,4,0.6110959053039551,2,
R2370,faltábamos,568,word,2,True,4,0.7930338382720947,1,
R2370,barrías,569,word,2,True,4,1.1480472087860107,1,
R2370,sindarían,570,word,1,True,4,0.9789717197418213,2,
R2370,gacharían,571,word,1,True,4,4.328319072723389,2,
R2370,charlábamos,572,word,2,True,4,2.1641428470611572,1,
R2370,faltaré,573,word,2,True,4,0.8244099617004395,1,
R2370,rondaríamos,574,word,1,False,4,0.8901200294494629,1,
R2370,bailaba,575,word,2,True,4,0.7562878131866455,1,
R2370,imirán,576,word,1,True,4,0.7723808288574219,2,
R2370,subiríamos,577,word,2,True,4,2.838984966278076,1,
R2370,unirá,578,word,2,True,4,0.8432221412658691,1,
R2370,galaba,579,word,1,True,4,0.7604527473449707,2,
R2370,luntía,580,word,1,True,4,0.836036205291748,2,
R2370,sufrirías,581,word,2,True,4,0.952228307723999,1,
R2370,pavabas,582,word,1,True,4,0.6472210884094238,2,
R2370,honderías,583,word,1,True,4,1.058577060699463,2,
R2370,prendería,584,word,2,True,4,1.16044020652771,1,
R2370,cichirás,585,word,1,True,4,1.1842601299285889,2,
R2370,cichiríamos,586,word,1,True,4,1.8173022270202637,2,
R2370,tupliré,587,word,1,True,4,0.7191970348358154,2,
R2370,gacharás,588,word,1,True,4,1.3597629070281982,2,
R2370,besaban,589,word,2,True,4,0.7891650199890137,1,
R2370,narrarán,590,word,2,True,4,0.7688262462615967,1,
R2370,comerán,591,word,2,True,4,0.6535968780517578,1,
R2370,bailarían,592,word,2,True,4,1.9748127460479736,1,
R2370,cumplías,593,word,2,True,4,0.7629950046539307,1,
R2370,mertaríamos,594,word,1,True,4,0.7130780220031738,2,
R2370,focaban,595,word,1,True,4,1.2860360145568848,2,
R2370,pavaríamos,596,word,1,True,4,0.7499227523803711,2,
R2370,barrerían,597,word,2,True,4,0.9439690113067627,1,
R2370,focábamos,598,word,1,True,4,1.674030065536499,2,
R2370,monceremos,599,word,1,True,4,1.4308669567108154,2,
R2370,pactarás,600,word,2,True,4,1.1090641021728516,1,
R2370,galará,601,word,1,True,4,1.39394211769104,2,
R2370,cubríamos,602,word,2,True,4,0.8519761562347412,1,
R2370,sindabas,603,word,1,True,4,0.7288939952850342,2,
R2370,quijarían,604,word,1,True,4,0.8100988864898682,2,
R2370,cenaríamos,605,word,2,True,4,0.7939269542694092,1,
R2370,retaríamos,606,word,2,True,4,1.0231008529663086,1,
R2370,rotaré,607,word,2,True,4,0.7699000835418701,1,
R2370,tosíamos,608,word,2,True,4,0.8569600582122803,1,
R2370,retarían,609,word,2,True,4,0.6269891262054443,1,
R2370,meterán,610,word,2,True,4,0.9769747257232666,1,
R2370,someríamos,611,word,1,True,4,1.0540249347686768,2,
R2370,cenábamos,612,word,2,True,4,1.9790639877319336,1,
R2370,chanraremos,613,word,1,True,4,1.4359118938446045,2,
R2370,retabas,614,word,2,True,4,2.4268620014190674,1,
R2370,vendías,615,word,2,True,4,0.9220800399780273,1,
R2370,sufriríamos,616,word,2,True,4,0.608896017074585,1,
R2370,cichían,617,word,1,True,4,0.68998122215271,2,
R2370,temerías,618,word,2,True,4,0.795910120010376,1,
R2370,formarían,619,word,2,True,4,0.741081953048706,1,
R2370,cetaremos,620,word,1,True,4,0.9639077186584473,2,
R2370,quemarían,621,word,2,True,4,0.6719629764556885,1,
R2370,pactaría,622,word,2,True,4,0.9659368991851807,1,
R2370,maftarás,623,word,1,True,4,0.8279139995574951,2,
R2370,casábamos,624,word,2,True,4,0.7288768291473389,1,
R2370,cisarías,625,word,1,True,5,0.9490220546722412,2,
R2370,cederíamos,626,word,2,True,5,1.0039000511169434,1,
R2370,comerás,627,word,2,True,5,0.6252567768096924,1,
R2370,arderíamos,628,word,2,True,5,1.0450360774993896,1,
R2370,cederán,629,word,2,True,5,0.8749339580535889,1,
R2370,sufrirá,630,word,2,True,5,0.6879901885986328,1,
R2370,sauarían,631,word,1,True,5,0.7378859519958496,2,
R2370,porerás,632,word,1,True,5,0.8788819313049316,2,
R2370,cubrirían,633,word,2,True,5,1.2409908771514893,1,
R2370,burrabas,634,word,1,True,5,0.8338949680328369,2,
R2370,mertarías,635,word,1,True,5,0.9928650856018066,2,
R2370,burraban,636,word,1,True,5,0.8528001308441162,2,
R2370,galabas,637,word,1,True,5,3.307921886444092,2,
R2370,pavábamos,638,word,1,True,5,0.72281813621521,2,
R2370,toserías,639,word,2,True,5,0.6909282207489014,1,
R2370,lucharemos,640,word,2,True,5,0.773867130279541,1,
R2370,comíamos,641,word,2,True,5,1.6570861339569092,1,
R2370,luntirá,642,word,1,True,5,0.8439810276031494,2,
R2370,moncerás,643,word,1,True,5,0.6539778709411621,2,
R2370,anrías,644,word,1,True,5,0.5830528736114502,2,
R2370,mardirían,645,word,1,True,5,0.9543859958648682,2,
R2370,ciperá,646,word,1,True,5,0.7223761081695557,2,
R2370,corría,647,word,2,True,5,1.703322172164917,1,
R2370,cubrirá,648,word,2,True,5,0.8727259635925293,1,
R2370,vultaría,649,word,1,True,5,0.7399070262908936,2,
R2370,focará,650,word,1,True,5,1.000075101852417,2,
R2370,frinderás,651,word,1,True,5,0.6850810050964355,2,
R2370,lucharías,652,word,2,True,5,0.9149730205535889,1,
R2370,lachías,653,word,1,True,5,1.2260479927062988,2,
R2370,narraremos,654,word,2,True,5,0.6798179149627686,1,
R2370,prenderás,655,word,2,True,5,0.7449657917022705,1,
R2370,venderán,656,word,2,True,5,0.5530440807342529,1,
R2370,sufriremos,657,word,2,True,5,0.6649041175842285,1,
R2370,faltaban,658,word,2,True,5,1.8299980163574219,1,
R2370,sauaba,659,word,1,True,5,0.6190080642700195,2,
R2370,cichiremos,660,word,2,False,5,1.2610259056091309,2,
R2370,formaríamos,661,word,1,False,5,1.066131353378296,1,
R2370,uníamos,662,word,2,True,5,0.937800407409668,1,
R2370,retábamos,663,word,2,True,5,0.6218786239624023,1,
R2370,uniremos,664,word,2,True,5,0.9289419651031494,1,
R2370,bigaban,665,word,1,True,5,0.7519071102142334,2,
R2370,comerían,666,word,2,True,5,0.6958451271057129,1,
R2370,temerían,667,word,2,True,5,0.6551856994628906,1,
R2370,lucharíamos,668,word,2,True,5,0.6400868892669678,1,
R2370,luchaba,669,word,2,True,5,1.1389760971069336,1,
R2370,casaríamos,670,word,2,True,5,1.006883144378662,1,
R2370,quijarán,671,word,1,True,5,0.9579730033874512,2,
R2370,focarán,672,word,1,True,5,1.0280311107635498,2,
R2370,lamerán,673,word,2,True,5,0.8531172275543213,1,
R2370,barreríamos,674,word,2,True,5,0.48988986015319824,1,
R2370,lorgaba,675,word,1,True,5,0.7440290451049805,2,
R2370,quijaría,676,word,1,True,5,1.3700318336486816,2,
R2370,ceterías,677,word,1,True,5,0.6898832321166992,2,
R2370,narrábamos,678,word,2,True,5,1.471099853515625,1,
R2370,lorgaríamos,679,word,1,True,5,1.3801109790802002,2,
R2370,cuarriríamos,680,word,1,True,5,1.3098750114440918,2,
R2370,sindará,681,word,1,True,5,0.7278139591217041,2,
R2370,porías,682,word,1,True,5,0.7401127815246582,2,
R2370,barrerás,683,word,2,True,5,0.976898193359375,1,
R2370,retarán,684,word,2,True,5,0.6867489814758301,1,
R2370,someré,685,word,1,True,5,0.7959377765655518,2,
R2370,seserás,686,word,1,True,5,0.6949028968811035,2,
R2370,vultaremos,687,word,1,True,5,0.6749837398529053,2,
R2370,focaría,688,word,2,False,5,0.855125904083252,2,
R2370,cetía,689,word,1,True,5,0.7049000263214111,2,
R2370,unían,690,word,1,False,5,0.6099221706390381,1,
R2370,cubrías,691,word,2,True,5,0.9239931106567383,1,
R2370,rayaríamos,692,word,2,True,5,0.7565851211547852,1,
R2370,comía,693,word,2,True,5,0.9620258808135986,1,
R2370,bailaremos,694,word,2,True,5,0.7809069156646729,1,
R2370,eplarás,695,word,1,True,5,0.9038708209991455,2,
R2370,seserían,696,word,1,True,5,0.872967004776001,2,
R2370,faneré,697,word,1,True,5,0.9509389400482178,2,
R2370,coserás,698,word,2,True,5,0.7903048992156982,1,
R2370,correrían,699,word,2,True,5,0.7220652103424072,1,
R2370,maftarán,700,word,1,True,5,0.6670472621917725,2,
R2370,ceterán,701,word,1,True,5,0.8349950313568115,2,
R2370,burraba,702,word,1,True,5,1.0278599262237549,2,
R2370,galarías,703,word,1,True,5,0.7380480766296387,2,
R2370,poreré,704,word,1,True,5,1.3279190063476562,2,
R2370,bruvirán,705,word,1,True,5,0.6189761161804199,2,
R2370,rimarán,706,word,2,True,5,0.8940598964691162,1,
R2370,imiré,707,word,1,True,5,0.6799159049987793,2,
R2370,partía,708,word,2,True,5,0.8219470977783203,1,
R2370,ceflerán,709,word,1,True,5,0.7500581741333008,2,
R2370,narrarías,710,word,2,True,5,0.832956075668335,1,
R2370,lucharás,711,word,2,True,5,0.598829984664917,1,
R2370,unirías,712,word,2,True,5,0.8459680080413818,1,
R2370,bruvirían,713,word,1,True,5,1.1029307842254639,2,
R2370,cumplirías,714,word,1,False,5,2.2320058345794678,1,
R2370,sauabas,715,word,1,True,5,0.8238799571990967,2,
R2370,seserá,716,word,1,True,5,0.9479820728302002,2,
R2370,nadará,717,word,2,True,5,0.6969790458679199,1,
R2370,nadabas,718,word,2,True,5,2.2019569873809814,1,
R2370,faltarían,719,word,2,True,5,2.2762107849121094,1,
R2370,ciperíamos,720,word,1,True,5,1.8351349830627441,2,
R2370,vultábamos,721,word,1,True,5,1.221019983291626,2,
R2370,juraban,722,word,2,True,5,1.3967652320861816,1,
R2370,porían,723,word,1,True,5,0.6989359855651855,2,
R2370,imirías,724,word,1,True,5,0.7441070079803467,2,
R2370,temeremos,725,word,2,True,5,1.1779851913452148,1,
R2370,rondarás,726,word,2,True,5,0.9258971214294434,1,
R2370,runarías,727,word,1,True,5,1.3039443492889404,2,
R2370,cubrirán,728,word,2,True,5,1.1110401153564453,1,
R2370,charlaré,729,word,2,True,5,2.527217149734497,1,
R2370,uniríamos,730,word,2,True,5,0.9954330921173096,1,
R2370,cumplirían,731,word,2,True,5,0.7419960498809814,1,
R2370,rondabas,732,word,1,False,5,3.233924150466919,1,
R2370,charlará,733,word,2,True,5,1.3490030765533447,1,
R2370,jurará,734,word,2,True,5,1.3168959617614746,1,
R2370,besaríamos,735,word,2,True,5,0.7780458927154541,1,
R2370,frinderán,736,word,1,True,5,0.8027122020721436,2,
R2370,casarán,737,word,2,True,5,0.9120378494262695,1,
R2370,cefleré,738,word,1,True,5,0.9630939960479736,2,
R2370,gacharán,739,word,1,True,5,1.0199768543243408,2,
R2370,partiremos,740,word,1,False,5,0.9678530693054199,1,
R2370,lailará,741,word,1,True,5,0.9398810863494873,2,
R2370,cuarriría,742,word,1,True,5,0.7838389873504639,2,
R2370,rayabas,743,word,2,True,5,1.2819530963897705,1,
R2370,cetían,744,word,1,True,5,0.7371118068695068,2,
R2370,somía,745,word,1,True,5,0.9728991985321045,2,
R2370,morderemos,746,word,2,True,5,1.1690070629119873,1,
R2370,bimaban,747,word,1,True,5,0.8691079616546631,2,
R2370,anríamos,748,word,1,True,5,0.7119569778442383,2,
R2370,bigarías,749,word,2,False,5,1.7980749607086182,2,
R2370,rimarían,750,word,2,True,5,1.0848989486694336,1,
R2370,ardíamos,751,word,2,True,5,0.8589413166046143,1,
R2370,lailaremos,752,word,1,True,5,0.7729477882385254,2,
R2370,maftarías,753,word,1,True,5,0.7162878513336182,2,
R2370,correríamos,754,word,2,True,5,0.6741368770599365,1,
R2370,ciperemos,755,word,1,True,5,0.5929617881774902,2,
R2370,lailaré,756,word,1,True,5,0.6703832149505615,2,
R2370,chanraría,757,word,1,True,5,0.934013843536377,2,
R2370,lorgarán,758,word,1,True,5,1.444019079208374,2,
R2370,anreríamos,759,word,1,True,5,0.9180159568786621,2,
R2370,nadaremos,760,word,2,True,5,0.7659180164337158,1,
R2370,bimarían,761,word,1,True,5,0.7659170627593994,2,
R2370,bigábamos,762,word,1,True,5,0.6510269641876221,2,
R2370,frinderé,763,word,1,True,5,0.7198562622070312,2,
R2370,ciperán,764,word,1,True,5,0.5578219890594482,2,
R2370,gacharías,765,word,1,True,5,0.8191089630126953,2,
R2370,fanerán,766,word,1,True,5,0.5228569507598877,2,
R2370,anreremos,767,word,1,True,5,0.46198296546936035,2,
R2370,bigará,768,word,1,True,5,2.539973258972168,2,
R2370,mertará,769,word,1,True,5,0.7930197715759277,2,
R2370,porería,770,word,1,True,5,0.5779991149902344,2,
R2370,sufriré,771,word,2,True,5,0.6698758602142334,1,
R2370,sindarán,772,word,1,True,5,0.7298548221588135,2,
R2370,moncerías,773,word,1,True,5,2.002960205078125,2,
R2370,morderías,774,word,2,True,5,1.6950829029083252,1,
R2370,cenarás,775,word,2,True,5,0.9638290405273438,1,
R2370,bigabas,776,word,1,True,5,0.7241401672363281,2,
R2370,somería,777,word,1,True,5,2.2921552658081055,2,
R2370,quemaba,778,word,2,True,5,1.0009169578552246,1,
R2370,formarás,779,word,2,True,5,0.7939870357513428,1,
R2370,fundirán,780,word,2,True,5,1.1456289291381836,1,
R2370,focaba,781,word,1,True,6,1.2679860591888428,2,
R2370,ceterían,782,word,1,True,6,0.7817490100860596,2,
R2370,tupliríamos,783,word,1,True,6,0.840001106262207,2,
R2370,partirá,784,word,2,True,6,0.7930300235748291,1,
R2370,tujían,785,word,1,True,6,0.8324751853942871,2,
R2370,rondará,786,word,p,False,6,124.025554895401,1,
R2370,focarían,787,word,1,True,6,2.760162830352783,2,
R2370,obrábamos,788,word,2,True,6,1.0700263977050781,1,
R2370,partiríamos,789,word,2,True,6,1.3009018898010254,1,
R2370,pavaban,790,word,1,True,6,0.7450392246246338,2,
R2370,partirías,791,word,2,True,6,1.1360499858856201,1,
R2370,anrerán,792,word,1,True,6,0.7810659408569336,2,
R2370,temían,793,word,2,True,6,0.8250889778137207,1,
R2370,eplabas,794,word,1,True,6,0.7419559955596924,2,
R2370,cedería,795,word,1,False,6,0.7758958339691162,1,
R2370,chanrábamos,796,word,1,True,6,1.144040822982788,2,
R2370,eplaré,797,word,1,True,6,0.9271202087402344,2,
R2370,partían,798,word,2,True,6,0.7743420600891113,1,
R2370,cetabas,799,word,1,True,6,1.1709768772125244,2,
R2370,cuarría,800,word,1,True,6,0.8482742309570312,2,
R2370,riterá,801,word,1,True,6,1.3930199146270752,2,
R2370,sufrías,802,word,2,True,6,0.8159070014953613,1,
R2370,tuplirías,803,word,1,True,6,0.7000439167022705,2,
R2370,cedían,804,word,2,True,6,1.1321310997009277,1,
R2370,ceflía,805,word,1,True,6,0.7980501651763916,2,
R2370,tuplirás,806,word,1,True,6,0.7760989665985107,2,
R2370,cisábamos,807,word,1,True,6,0.980787992477417,2,
R2370,meterá,808,word,2,True,6,1.183966875076294,1,
R2370,cichirías,809,word,1,True,6,1.1281018257141113,2,
R2370,quemábamos,810,word,2,True,6,1.2990000247955322,1,
R2370,besabas,811,word,2,True,6,1.2858848571777344,1,
R2370,eplaba,812,word,1,True,6,0.7431280612945557,2,
R2370,lamerías,813,word,2,True,6,0.8918941020965576,1,
R2370,charlaría,814,word,2,True,6,1.0511219501495361,1,
R2370,rimará,815,word,2,True,6,1.0635342597961426,1,
R2370,subirás,816,word,2,True,6,1.0359070301055908,1,
R2370,ritíamos,817,word,1,True,6,0.9468469619750977,2,
R2370,gachará,818,word,1,True,6,1.067065954208374,2,
R2370,rimaríamos,819,word,2,True,6,0.7980000972747803,1,
R2370,obrarán,820,word,2,True,6,1.0151407718658447,1,
R2370,runaremos,821,word,1,True,6,0.8910419940948486,2,
R2370,rondaban,822,word,2,True,6,1.1018707752227783,1,
R2370,comería,823,word,2,True,6,0.8038389682769775,1,
R2370,toserás,824,word,2,True,6,0.8299539089202881,1,
R2370,imiríamos,825,word,1,True,6,0.9179658889770508,2,
R2370,tujiríamos,826,word,1,True,6,1.1420788764953613,2,
R2370,sumabas,827,word,2,True,6,0.7890098094940186,1,
R2370,cichíamos,828,word,1,True,6,0.6970150470733643,2,
R2370,tujirán,829,word,1,True,6,0.8498661518096924,2,
R2370,correremos,830,word,2,True,6,0.9300391674041748,1,
R2370,quijarías,831,word,1,True,6,1.403925895690918,2,
R2370,charlarías,832,word,2,True,6,1.1989450454711914,1,
R2370,barrerá,833,word,2,True,6,1.2139630317687988,1,
R2370,jurarían,834,word,2,True,6,0.7170028686523438,1,
R2370,rotaríamos,835,word,2,True,6,1.0380158424377441,1,
R2370,galarían,836,word,1,True,6,2.428922176361084,2,
R2370,corrían,837,word,2,True,6,1.4305648803710938,1,
R2370,casará,838,word,2,True,6,0.8598678112030029,1,
R2370,cumplían,839,word,2,True,6,0.8340868949890137,1,
R2370,somerían,840,word,1,True,6,1.1732051372528076,2,
R2370,bigarás,841,word,1,True,6,0.7849009037017822,2,
R2370,fundías,842,word,2,True,6,0.7699258327484131,1,
R2370,imirían,843,word,1,True,6,0.6571657657623291,2,
R2370,sumaré,844,word,2,True,6,0.7774300575256348,1,
R2370,cosería,845,word,2,True,6,0.6691350936889648,1,
R2370,gruñiríamos,846,word,2,True,6,1.1239540576934814,1,
R2370,moncían,847,word,1,True,6,1.4041199684143066,2,
R2370,luntiría,848,word,1,True,6,1.1159422397613525,2,
R2370,honderemos,849,word,1,True,6,1.1633007526397705,2,
R2370,rayarás,850,word,2,True,6,0.9710233211517334,1,
R2370,vultarán,851,word,1,True,6,2.8441579341888428,2,
R2370,quemarías,852,word,2,True,6,2.539010763168335,1,
R2370,lorgaría,853,word,1,True,6,0.8100008964538574,2,
R2370,morderás,854,word,2,True,6,0.6738579273223877,1,
R2370,quemarás,855,word,2,True,6,0.7650229930877686,1,
R2370,formaría,856,word,2,True,6,1.0303640365600586,1,
R2370,besarás,857,word,2,True,6,0.7659950256347656,1,
R2370,seserán,858,word,1,True,6,0.9000341892242432,2,
R2370,cubriré,859,word,2,True,6,1.3751380443572998,1,
R2370,ardían,860,word,2,True,6,0.7329089641571045,1,
R2370,runaré,861,word,1,True,6,0.7729611396789551,2,
R2370,sindaríamos,862,word,1,True,6,0.8980028629302979,2,
R2370,cenabas,863,word,2,True,6,1.1959738731384277,1,
R2370,ciperías,864,word,1,True,6,0.9209198951721191,2,
R2370,frinderemos,865,word,1,True,6,0.901904821395874,2,
R2370,imías,866,word,1,True,6,1.0549371242523193,2,
R2370,bruvía,867,word,1,True,6,1.1321439743041992,2,
R2370,moncerán,868,word,1,True,6,0.8139462471008301,2,
R2370,sufría,869,word,2,True,6,0.9704687595367432,1,
R2370,morderá,870,word,2,True,6,0.9129390716552734,1,
R2370,runaban,871,word,1,True,6,0.8009278774261475,2,
R2370,cisaré,872,word,1,True,6,0.8351140022277832,2,
R2370,poreríamos,873,word,1,True,6,1.2520267963409424,2,
R2370,chanrarías,874,word,1,True,6,0.9751129150390625,2,
R2370,bigarán,875,word,1,True,6,1.0210089683532715,2,
R2370,sesíamos,876,word,1,True,6,0.8910188674926758,2,
R2370,ceflería,877,word,1,True,6,1.331995964050293,2,
R2370,cuarrías,878,word,1,True,6,1.2190799713134766,2,
R2370,pactarías,879,word,1,False,6,0.6438207626342773,1,
R2370,honderás,880,word,1,True,6,0.7980039119720459,2,
R2370,rayarían,881,word,2,True,6,1.6219611167907715,1,
R2370,fanerían,882,word,1,True,6,0.7448418140411377,2,
R2370,sufriría,883,word,2,True,6,0.6971089839935303,1,
R2370,rotarías,884,word,2,True,6,0.9510152339935303,1,
R2370,rimarás,885,word,2,True,6,1.3632149696350098,1,
R2370,cederemos,886,word,1,False,6,0.9190342426300049,1,
R2370,maftarían,887,word,1,True,6,1.1250112056732178,2,
R2370,chanrará,888,word,1,True,6,0.9100480079650879,2,
R2370,sauaremos,889,word,1,True,6,0.810067892074585,2,
R2370,anrerían,890,word,1,True,6,0.7929801940917969,2,
R2370,tuplíamos,891,word,1,True,6,0.9476001262664795,2,
R2370,tujirás,892,word,1,True,6,1.2990918159484863,2,
R2370,pactaban,893,word,1,False,6,1.2058789730072021,1,
R2370,someremos,894,word,1,True,6,0.8590190410614014,2,
R2370,runaba,895,word,1,True,6,0.7540841102600098,2,
R2370,lachía,896,word,1,True,6,0.9187829494476318,2,
R2370,temeríamos,897,word,2,True,6,0.7730100154876709,1,
R2370,lailabas,898,word,1,True,6,1.122920036315918,2,
R2370,rayaré,899,word,2,True,6,0.7729940414428711,1,
R2370,anreré,900,word,1,True,6,0.6350018978118896,2,
R2370,lorgabas,901,word,1,True,6,0.8139288425445557,2,
R2370,casaban,902,word,2,True,6,0.8689920902252197,1,
R2370,cetará,903,word,1,True,6,0.7748091220855713,2,
R2370,mardiría,904,word,1,True,6,1.311941146850586,2,
R2370,sufrirás,905,word,1,False,6,1.3558909893035889,1,
R2370,cubriremos,906,word,2,True,6,2.122926712036133,1,
R2370,cortábamos,907,word,2,True,6,0.8026549816131592,1,
R2370,lorgaban,908,word,1,True,6,0.8349888324737549,2,
R2370,bailabas,909,word,2,True,6,1.3879549503326416,1,
R2370,meterías,910,word,2,True,6,3.19891095161438,1,
R2370,cichirán,911,word,1,True,6,0.7679376602172852,2,
R2370,partíamos,912,word,2,True,6,1.3198018074035645,1,
R2370,arderían,913,word,2,True,6,0.9663689136505127,1,
R2370,jurabas,914,word,2,True,6,1.0141260623931885,1,
R2370,luntían,915,word,1,True,6,1.0130040645599365,2,
R2370,zusaban,916,word,1,True,6,1.552037000656128,2,
R2370,charlaba,917,word,2,True,6,1.0161406993865967,1,
R2370,cumpliré,918,word,2,True,6,0.7089269161224365,1,
R2370,zusarás,919,word,1,True,6,0.6012017726898193,2,
R2370,cetaban,920,word,1,True,6,1.0453908443450928,2,
R2370,comían,921,word,2,True,6,0.8473780155181885,1,
R2370,galaremos,922,word,1,True,6,1.3833692073822021,2,
R2370,cumplíamos,923,word,2,True,6,0.7971830368041992,1,
R2370,gruñían,924,word,2,True,6,2.145155668258667,1,
R2370,somían,925,word,1,True,6,0.8392581939697266,2,
R2370,temerán,926,word,2,True,6,1.5495998859405518,1,
R2370,bruvías,927,word,1,True,6,0.761315107345581,2,
R2370,bimarán,928,word,1,True,6,0.7458100318908691,2,
R2370,barrían,929,word,2,True,6,1.2832868099212646,1,
R2370,rotará,930,word,2,True,6,0.9292128086090088,1,
R2370,cichirían,931,word,1,True,6,0.9890451431274414,2,
R2370,vendería,932,word,2,True,6,1.2969460487365723,1,
R2370,fundía,933,word,2,True,6,0.9962460994720459,1,
R2370,lailarías,934,word,1,True,6,0.6563677787780762,2,
R2370,nadarás,935,word,2,True,6,0.9396910667419434,1,
R2370,temerá,936,word,2,True,6,1.67460298538208,1,
R2370,lorgará,937,word,1,True,7,0.9810712337493896,2,
R2370,cetarás,938,word,1,True,7,0.8128929138183594,2,
R2370,sesería,939,word,1,True,7,1.1229920387268066,2,
R2370,ceflerían,940,word,1,True,7,0.6568729877471924,2,
R2370,luntiríamos,941,word,1,True,7,1.009983777999878,2,
R2370,rotaban,942,word,2,True,7,0.6951148509979248,1,
R2370,zusarán,943,word,1,True,7,0.7032270431518555,2,
R2370,zusarías,944,word,1,True,7,0.5679430961608887,2,
R2370,luchábamos,945,word,2,True,7,0.9051640033721924,1,
R2370,comeremos,946,word,2,True,7,0.8088870048522949,1,
R2370,tuplirá,947,word,1,True,7,0.7159826755523682,2,
R2370,obraremos,948,word,2,True,7,0.6969029903411865,1,
R2370,quemará,949,word,2,True,7,1.3649919033050537,1,
R2370,imían,950,word,1,True,7,0.6829571723937988,2,
R2370,frinderían,951,word,1,True,7,1.0376229286193848,2,
R2370,lorgaré,952,word,1,True,7,1.0878591537475586,2,
R2370,faltarías,953,word,2,True,7,0.77610182762146,1,
R2370,eplarían,954,word,1,True,7,0.7761168479919434,2,
R2370,bailarías,955,word,2,True,7,0.8731513023376465,1,
R2370,obraban,956,word,2,True,7,1.1548707485198975,1,
R2370,rayarías,957,word,2,True,7,1.924001932144165,1,
R2370,luchará,958,word,2,True,7,0.853085994720459,1,
R2370,somerás,959,word,1,True,7,1.0013020038604736,2,
R2370,sumábamos,960,word,2,True,7,2.338158130645752,1,
R2370,retarás,961,word,2,True,7,1.180049180984497,1,
R2370,sauaban,962,word,1,True,7,0.6778848171234131,2,
R2370,somerán,963,word,1,True,7,1.316100835800171,2,
R2370,ceflerá,964,word,1,True,7,0.6729099750518799,2,
R2370,vultarías,965,word,1,True,7,2.7681868076324463,2,
R2370,anrerías,966,word,1,True,7,0.67203688621521,2,
R2370,comeré,967,word,2,True,7,0.884047269821167,1,
R2370,prenderemos,968,word,2,True,7,1.0791308879852295,1,
R2370,lucharían,969,word,2,True,7,0.6598219871520996,1,
R2370,galaban,970,word,1,True,7,0.7239439487457275,2,
R2370,prenderías,971,word,2,True,7,1.827970027923584,1,
R2370,sindarías,972,word,1,True,7,1.2610628604888916,2,
R2370,cipía,973,word,1,True,7,0.6569879055023193,2,
R2370,nadaban,974,word,2,True,7,1.2259929180145264,1,
R2370,besarán,975,word,2,True,7,0.7000892162322998,1,
R2370,juraremos,976,word,2,True,7,1.154008150100708,1,
R2370,charlaríamos,977,word,2,True,7,0.9350500106811523,1,
R2370,sumarás,978,word,2,True,7,0.9765031337738037,1,
R2370,venderá,979,word,2,True,7,0.7688755989074707,1,
R2370,jurarías,980,word,2,True,7,0.7490580081939697,1,
R2370,quijaré,981,word,1,True,7,0.8812799453735352,2,
R2370,bruvirás,982,word,1,True,7,0.61800217628479,2,
R2370,lamerá,983,word,2,True,7,0.6941370964050293,1,
R2370,faltaría,984,word,2,True,7,1.4050590991973877,1,
R2370,cenaré,985,word,2,True,7,0.7739777565002441,1,
R2370,gruñiré,986,word,2,True,7,2.3959102630615234,1,
R2370,rotarán,987,word,2,True,7,0.6989340782165527,1,
R2370,sumaríamos,988,word,2,True,7,0.8589920997619629,1,
R2370,zusaba,989,word,1,True,7,0.5820968151092529,2,
R2370,frindíamos,990,word,1,True,7,2.8428189754486084,2,
R2370,narrará,991,word,2,True,7,1.2435238361358643,1,
R2370,moncíamos,992,word,1,True,7,1.2638907432556152,2,
R2370,sumaba,993,word,2,True,7,1.175001859664917,1,
R2370,runaríamos,994,word,1,True,7,1.0169708728790283,2,
R2370,riterás,995,word,1,True,7,0.8338801860809326,2,
R2370,tuplía,996,word,1,True,7,0.6788208484649658,2,
R2370,juraré,997,word,2,True,7,0.6410412788391113,1,
R2370,mordíamos,998,word,2,True,7,1.7708189487457275,1,
R2370,tujirían,999,word,1,True,7,0.7889831066131592,2,
R2370,toserán,1000,word,2,True,7,1.1456470489501953,1,
R2370,mertaré,1001,word,1,True,7,1.5457961559295654,2,
R2370,tosería,1002,word,2,True,7,1.5861880779266357,1,
R2370,cosían,1003,word,2,True,7,0.7415411472320557,1,
R2370,cubrían,1004,word,2,True,7,3.4058802127838135,1,
R2370,morderé,1005,word,2,True,7,1.3139760494232178,1,
R2370,cortabas,1006,word,2,True,7,0.8080592155456543,1,
R2370,zusaría,1007,word,1,True,7,0.6020791530609131,2,
R2370,gacharíamos,1008,word,1,True,7,1.489307165145874,2,
R2370,mertábamos,1009,word,1,True,7,1.2911045551300049,2,
R2370,lucharé,1010,word,2,True,7,0.8438131809234619,1,
R2370,cetarían,1011,word,1,True,7,0.8400278091430664,2,
R2370,galarás,1012,word,1,True,7,0.7580029964447021,2,
R2370,ceterá,1013,word,1,True,7,0.945288896560669,2,
R2370,cisaban,1014,word,1,True,7,0.825880765914917,2,
R2370,cenarías,1015,word,2,True,7,1.2391149997711182,1,
R2370,burrarían,1016,word,1,True,7,1.0400147438049316,2,
R2370,bimarás,1017,word,1,True,7,2.2909598350524902,2,
R2370,chanrarán,1018,word,1,True,7,0.7609829902648926,2,
R2370,prendían,1019,word,2,True,7,1.08005690574646,1,
R2370,seseríamos,1020,word,1,True,7,1.2710199356079102,2,
R2370,frinderá,1021,word,1,True,7,0.9481308460235596,2,
R2370,comeríamos,1022,word,2,True,7,0.899817943572998,1,
R2370,cuarrirá,1023,word,1,True,7,1.6430237293243408,2,
R2370,bigaríamos,1024,word,1,True,7,0.8155348300933838,2,
R2370,moncería,1025,word,1,True,7,1.3220570087432861,2,
R2370,nadarían,1026,word,2,True,7,1.4719669818878174,1,
R2370,cisarían,1027,word,1,True,7,0.7548990249633789,2,
R2370,toseré,1028,word,2,True,7,0.7900848388671875,1,
R2370,juraríamos,1029,word,2,True,7,0.8410260677337646,1,
R2370,cubría,1030,word,2,True,7,1.1810276508331299,1,
R2370,obrabas,1031,word,2,True,7,0.9029951095581055,1,
R2370,pactaré,1032,word,2,True,7,0.7820971012115479,1,
R2370,prendía,1033,word,2,True,7,1.1048901081085205,1,
R2370,venderé,1034,word,2,True,7,0.6098020076751709,1,
R2370,charlarán,1035,word,2,True,7,0.6162359714508057,1,
R2370,fundirá,1036,word,2,True,7,0.5490021705627441,1,
R2370,comías,1037,word,2,True,7,0.5010170936584473,1,
R2370,vultará,1038,word,1,True,7,0.8040778636932373,2,
R2370,bimarías,1039,word,1,True,7,0.771956205368042,2,
R2370,casaré,1040,word,2,True,7,0.7098450660705566,1,
R2370,mardían,1041,word,1,True,7,1.6190640926361084,2,
R2370,eplaría,1042,word,1,True,7,0.9239418506622314,2,
R2370,monceré,1043,word,1,True,7,2.001121997833252,2,
R2370,lailarían,1044,word,1,True,7,0.8998641967773438,2,
R2370,besará,1045,word,2,True,7,1.073875904083252,1,
R2370,subiría,1046,word,2,True,7,2.5391018390655518,1,
R2370,rimaban,1047,word,2,True,7,1.7720818519592285,1,
R2370,quijará,1048,word,1,True,7,1.580101728439331,2,
R2370,fundirías,1049,word,2,True,7,0.7670531272888184,1,
R2370,coserían,1050,word,2,True,7,3.2965540885925293,1,
R2370,fanerá,1051,word,1,True,7,1.195565938949585,2,
R2370,bimaré,1052,word,1,True,7,0.7648119926452637,2,
R2370,correrás,1053,word,2,True,7,1.6309118270874023,1,
R2370,casarían,1054,word,2,True,7,0.6551120281219482,1,
R2370,quemaríamos,1055,word,2,True,7,0.8798718452453613,1,
R2370,eplará,1056,word,1,True,7,0.8295762538909912,2,
R2370,metería,1057,word,2,True,7,1.1280691623687744,1,
R2370,ciperían,1058,word,1,True,7,0.8309159278869629,2,
R2370,mardiríamos,1059,word,1,True,7,1.1889429092407227,2,
R2370,runábamos,1060,word,1,True,7,1.5839030742645264,2,
R2370,cisaremos,1061,word,1,True,7,0.8043301105499268,2,
R2370,sindarás,1062,word,1,True,7,0.7051711082458496,2,
R2370,pavarías,1063,word,1,True,7,0.5959091186523438,2,
R2370,cumplía,1064,word,2,True,7,1.0319132804870605,1,
R2370,barrerías,1065,word,2,True,7,3.5400619506835938,1,
R2370,honderán,1066,word,2,False,7,1.6251990795135498,2,
R2370,gruñiremos,1067,word,1,False,7,0.8239309787750244,1,
R2370,galarán,1068,word,1,True,7,1.1808710098266602,2,
R2370,frindería,1069,word,1,True,7,1.1030888557434082,2,
R2370,vultaríamos,1070,word,1,True,7,1.369352102279663,2,
R2370,sauarías,1071,word,1,True,7,0.8980333805084229,2,
R2370,sauábamos,1072,word,1,True,7,0.7388479709625244,2,
R2370,hondían,1073,word,1,True,7,0.7022120952606201,2,
R2370,subiré,1074,word,2,True,7,1.2518351078033447,1,
R2370,cichirá,1075,word,1,True,7,0.7980449199676514,2,
R2370,barreré,1076,word,2,True,7,1.160897970199585,1,
R2370,runabas,1077,word,1,True,7,0.8280389308929443,2,
R2370,fundiré,1078,word,2,True,7,0.7369778156280518,1,
R2370,prenderé,1079,word,2,True,7,0.8920419216156006,1,
R2370,pactaríamos,1080,word,2,True,7,1.1330540180206299,1,
R2370,correrías,1081,word,2,True,7,0.6722829341888428,1,
R2370,bimaremos,1082,word,1,True,7,0.7350890636444092,2,
R2370,rondaba,1083,word,2,True,7,0.8218669891357422,1,
R2370,pavarán,1084,word,1,True,7,0.7168240547180176,2,
R2370,faltaba,1085,word,2,True,7,0.8830809593200684,1,
R2370,porerías,1086,word,1,True,7,0.8878748416900635,2,
R2370,obrarás,1087,word,2,True,7,0.9990310668945312,1,
R2370,cenaban,1088,word,2,True,7,0.7169222831726074,1,
R2370,rayábamos,1089,word,2,True,7,0.8460931777954102,1,
R2370,cisará,1090,word,1,True,7,0.7181320190429688,2,
R2370,rotaba,1091,word,2,True,7,3.141280174255371,1,
R2370,faltarán,1092,word,2,True,7,2.1263580322265625,1,
