participant,stimuli,trialNum,target_type,response,correct,block,reaction_time,trigger,
R2375,runará,1,word,1,True,1,2.892972946166992,2,
R2375,lacherá,2,word,1,True,1,2.5928916931152344,2,
R2375,burrábamos,3,word,1,True,1,3.1100399494171143,2,
R2375,gachábamos,4,word,2,False,1,1.4939138889312744,2,
R2375,mardías,5,word,2,False,1,1.0149407386779785,2,
R2375,anrerían,6,word,1,True,1,1.3159451484680176,2,
R2375,lacheríamos,7,word,1,True,1,2.0531160831451416,2,
R2375,bimarías,8,word,1,True,1,1.819091796875,2,
R2375,partíamos,9,word,2,True,1,2.6669209003448486,1,
R2375,quemaremos,10,word,2,True,1,1.7220227718353271,1,
R2375,fundían,11,word,2,True,1,2.2929251194000244,1,
R2375,faltaban,12,word,2,True,1,0.7627890110015869,1,
R2375,cenaré,13,word,2,True,1,1.2458560466766357,1,
R2375,quemarían,14,word,2,True,1,0.778975248336792,1,
R2375,cuarrirá,15,word,2,False,1,1.2728707790374756,2,
R2375,fundiríamos,16,word,1,False,1,2.6709439754486084,1,
R2375,quemará,17,word,2,True,1,0.7279596328735352,1,
R2375,mertarán,18,word,1,True,1,1.4548778533935547,2,
R2375,cederá,19,word,2,True,1,1.3449599742889404,1,
R2375,ardía,20,word,2,True,1,0.8829360008239746,1,
R2375,lamería,21,word,1,False,1,0.9289162158966064,1,
R2375,luntías,22,word,1,True,1,1.03788423538208,2,
R2375,morderás,23,word,2,True,1,1.6169159412384033,1,
R2375,burraban,24,word,1,True,1,1.8572008609771729,2,
R2375,prenderías,25,word,2,True,1,0.796781063079834,1,
R2375,morderías,26,word,2,True,1,1.0509059429168701,1,
R2375,sumabas,27,word,2,True,1,1.1851677894592285,1,
R2375,luntirían,28,word,1,True,1,1.2819807529449463,2,
R2375,lacheré,29,word,1,True,1,0.8608047962188721,2,
R2375,chanraría,30,word,1,True,1,1.2899577617645264,2,
R2375,lamerás,31,word,1,False,1,1.1029739379882812,1,
R2375,gruñirías,32,word,2,True,1,0.9629330635070801,1,
R2375,rondaremos,33,word,2,True,1,1.6309762001037598,1,
R2375,ciperé,34,word,1,True,1,0.9288890361785889,2,
R2375,cenarían,35,word,2,True,1,0.7357368469238281,1,
R2375,poreremos,36,word,1,True,1,1.614900827407837,2,
R2375,burrarás,37,word,1,True,1,0.9719901084899902,2,
R2375,sindábamos,38,word,1,True,1,2.589627742767334,2,
R2375,hondíamos,39,word,1,True,1,1.197789192199707,2,
R2375,focaríamos,40,word,1,True,1,1.8481512069702148,2,
R2375,tujíamos,41,word,1,True,1,1.3389151096343994,2,
R2375,mordía,42,word,2,True,1,0.99003005027771,1,
R2375,fundirías,43,word,1,False,1,1.9919259548187256,1,
R2375,maftarán,44,word,1,True,1,0.8399081230163574,2,
R2375,anrerías,45,word,1,True,1,1.1118700504302979,2,
R2375,subía,46,word,2,True,1,0.8570661544799805,1,
R2375,tuplirás,47,word,1,True,1,0.9728279113769531,2,
R2375,bruvías,48,word,1,True,1,1.0000309944152832,2,
R2375,cisarían,49,word,2,False,1,0.9588780403137207,2,
R2375,sesería,50,word,2,False,1,1.4877569675445557,2,
R2375,obraban,51,word,2,True,1,2.2149510383605957,1,
R2375,cichirán,52,word,1,True,1,1.0989370346069336,2,
R2375,cetará,53,word,1,True,1,0.9458727836608887,2,
R2375,cenaría,54,word,2,True,1,0.8675711154937744,1,
R2375,formarán,55,word,2,True,1,0.9849710464477539,1,
R2375,corrías,56,word,1,False,1,2.631002902984619,1,
R2375,retaríamos,57,word,1,False,1,2.2448861598968506,1,
R2375,subían,58,word,2,True,1,0.6199131011962891,1,
R2375,pavaré,59,word,1,True,1,0.7819340229034424,2,
R2375,tujiremos,60,word,1,True,1,0.9338603019714355,2,
R2375,vultaré,61,word,1,True,1,0.9139859676361084,2,
R2375,gacharía,62,word,2,False,1,1.0599589347839355,2,
R2375,faltaba,63,word,2,True,1,0.6179299354553223,1,
R2375,sindaban,64,word,1,True,1,0.7560131549835205,2,
R2375,riteremos,65,word,1,True,1,1.0890862941741943,2,
R2375,burrarían,66,word,1,True,1,1.0669660568237305,2,
R2375,venderíamos,67,word,2,True,1,2.6928727626800537,1,
R2375,tupliríamos,68,word,1,True,1,1.2938430309295654,2,
R2375,bigarás,69,word,1,True,1,1.1847739219665527,2,
R2375,narrarás,70,word,1,False,1,1.1939101219177246,1,
R2375,luntiremos,71,word,1,True,1,0.817922830581665,2,
R2375,runarán,72,word,1,True,1,1.546022891998291,2,
R2375,arderé,73,word,2,True,1,1.5119071006774902,1,
R2375,nadaban,74,word,2,True,1,0.7829391956329346,1,
R2375,tuplíamos,75,word,1,True,1,0.8666532039642334,2,
R2375,partiré,76,word,2,True,1,1.5010647773742676,1,
R2375,charlaría,77,word,2,True,1,1.8366632461547852,1,
R2375,cetarás,78,word,1,True,1,0.9970798492431641,2,
R2375,bimábamos,79,word,1,True,1,2.0845909118652344,2,
R2375,maftaba,80,word,1,True,1,1.3979408740997314,2,
R2375,lailaría,81,word,1,True,1,1.6230206489562988,2,
R2375,sauará,82,word,1,True,1,1.4139621257781982,2,
R2375,maftábamos,83,word,1,True,1,0.6939868927001953,2,
R2375,gachaba,84,word,2,False,1,0.8280360698699951,2,
R2375,tujirían,85,word,1,True,1,1.3178799152374268,2,
R2375,bruvirás,86,word,1,True,1,1.3959879875183105,2,
R2375,rimaban,87,word,2,True,1,1.0392060279846191,1,
R2375,cortaría,88,word,2,True,1,0.7050690650939941,1,
R2375,zusaba,89,word,1,True,1,1.46589994430542,2,
R2375,lamías,90,word,1,False,1,0.8288629055023193,1,
R2375,temeré,91,word,2,True,1,0.722125768661499,1,
R2375,charlábamos,92,word,2,True,1,0.6969051361083984,1,
R2375,sumarías,93,word,2,True,1,0.9329469203948975,1,
R2375,tujías,94,word,1,True,1,0.7419157028198242,2,
R2375,subirán,95,word,2,True,1,1.640949010848999,1,
R2375,correrías,96,word,2,True,1,0.6199798583984375,1,
R2375,frinderíamos,97,word,1,True,1,1.8690249919891357,2,
R2375,ritía,98,word,1,True,1,0.9871139526367188,2,
R2375,bigabas,99,word,1,True,1,0.8548779487609863,2,
R2375,cetaríamos,100,word,1,True,1,0.7948830127716064,2,
R2375,maftaremos,101,word,1,True,1,0.7309520244598389,2,
R2375,besará,102,word,2,True,1,0.7619812488555908,1,
R2375,coseremos,103,word,2,True,1,0.9920339584350586,1,
R2375,sumaban,104,word,2,True,1,0.7809240818023682,1,
R2375,jurarán,105,word,2,True,1,0.9670019149780273,1,
R2375,frinderás,106,word,1,True,1,1.0698387622833252,2,
R2375,tujirá,107,word,1,True,1,1.146019697189331,2,
R2375,imirías,108,word,1,True,1,0.9449660778045654,2,
R2375,mordían,109,word,2,True,1,1.1630048751831055,1,
R2375,luntirán,110,word,1,True,1,1.038930892944336,2,
R2375,runaríamos,111,word,1,True,1,1.2158148288726807,2,
R2375,ceterían,112,word,1,True,1,0.690051794052124,2,
R2375,cisaban,113,word,2,False,1,2.9659080505371094,2,
R2375,moncerán,114,word,1,True,1,1.4920849800109863,2,
R2375,metía,115,word,2,True,1,0.7459640502929688,1,
R2375,unirías,116,word,2,True,1,0.6438069343566895,1,
R2375,cubriremos,117,word,2,True,1,0.7888021469116211,1,
R2375,quijarás,118,word,1,True,1,0.9719748497009277,2,
R2375,fundiría,119,word,1,False,1,1.5251410007476807,1,
R2375,faltaría,120,word,2,True,1,0.7568988800048828,1,
R2375,pavaríamos,121,word,1,True,1,0.9620151519775391,2,
R2375,lorgarán,122,word,1,True,1,1.4280400276184082,2,
R2375,runaban,123,word,1,True,1,0.8959529399871826,2,
R2375,runaré,124,word,1,True,1,1.751906156539917,2,
R2375,quijábamos,125,word,1,True,1,1.0680110454559326,2,
R2375,cetería,126,word,1,True,1,2.1500940322875977,2,
R2375,temían,127,word,2,True,1,0.7379450798034668,1,
R2375,gacharán,128,word,2,False,1,0.5759391784667969,2,
R2375,tujirán,129,word,1,True,1,0.647089958190918,2,
R2375,cuarriríamos,130,word,1,True,1,1.1768193244934082,2,
R2375,ceterías,131,word,1,True,1,0.7281081676483154,2,
R2375,venderemos,132,word,2,True,1,0.828981876373291,1,
R2375,temerá,133,word,2,True,1,0.9469020366668701,1,
R2375,toserán,134,word,2,True,1,1.1983599662780762,1,
R2375,temeríamos,135,word,2,True,1,0.7360341548919678,1,
R2375,burraremos,136,word,1,True,1,1.1771469116210938,2,
R2375,fundiremos,137,word,1,False,1,0.7257561683654785,1,
R2375,charlaban,138,word,1,False,1,0.8760278224945068,1,
R2375,pactaríamos,139,word,2,True,1,1.9269800186157227,1,
R2375,galaré,140,word,1,True,1,0.9470179080963135,2,
R2375,chanraban,141,word,1,True,1,0.8813681602478027,2,
R2375,ceflería,142,word,1,True,1,1.1350047588348389,2,
R2375,partiríamos,143,word,2,True,1,0.8210899829864502,1,
R2375,honderías,144,word,1,True,1,1.7848320007324219,2,
R2375,lailarías,145,word,1,True,1,0.8378732204437256,2,
R2375,cubrirías,146,word,2,True,1,1.7400920391082764,1,
R2375,jurará,147,word,2,True,1,0.9450931549072266,1,
R2375,rimarías,148,word,2,True,1,1.395906925201416,1,
R2375,rondarías,149,word,1,False,1,1.1569788455963135,1,
R2375,obrarían,150,word,2,True,1,1.0899157524108887,1,
R2375,prendíamos,151,word,2,True,1,1.3918242454528809,1,
R2375,rotaría,152,word,2,True,1,0.9479453563690186,1,
R2375,uniremos,153,word,2,True,1,0.7376461029052734,1,
R2375,gacharé,154,word,2,False,1,0.7520220279693604,2,
R2375,pavarán,155,word,1,True,1,0.806002140045166,2,
R2375,seserían,156,word,1,True,1,2.3958468437194824,2,
R2375,imirían,157,word,1,True,2,2.1159849166870117,2,
R2375,somería,158,word,1,True,2,0.8087539672851562,2,
R2375,focabas,159,word,1,True,2,2.3645410537719727,2,
R2375,moncías,160,word,1,True,2,0.6778461933135986,2,
R2375,bimaba,161,word,1,True,2,0.5368607044219971,2,
R2375,ardería,162,word,2,True,2,0.8529798984527588,1,
R2375,partía,163,word,2,True,2,0.5410029888153076,1,
R2375,faltarán,164,word,2,True,2,0.5426859855651855,1,
R2375,casaría,165,word,2,True,2,0.8868699073791504,1,
R2375,nadaremos,166,word,2,True,2,0.6260626316070557,1,
R2375,toserías,167,word,1,False,2,1.5519051551818848,1,
R2375,fundirían,168,word,1,False,2,0.7226052284240723,1,
R2375,mardíamos,169,word,1,True,2,1.1122479438781738,2,
R2375,temerán,170,word,2,True,2,0.7909719944000244,1,
R2375,sauaré,171,word,1,True,2,1.1938698291778564,2,
R2375,comíamos,172,word,2,True,2,0.7290620803833008,1,
R2375,burraría,173,word,1,True,2,0.7339398860931396,2,
R2375,vultábamos,174,word,1,True,2,1.0769610404968262,2,
R2375,rondaré,175,word,1,False,2,0.5780038833618164,1,
R2375,mertaremos,176,word,1,True,2,1.5218532085418701,2,
R2375,narrabas,177,word,1,False,2,0.8630170822143555,1,
R2375,unías,178,word,2,True,2,0.8570539951324463,1,
R2375,ceflerás,179,word,1,True,2,1.1019268035888672,2,
R2375,cichirías,180,word,1,True,2,0.7320132255554199,2,
R2375,eplarás,181,word,1,True,2,0.6350178718566895,2,
R2375,bimaría,182,word,1,True,2,0.6529791355133057,2,
R2375,maftaría,183,word,1,True,2,0.6880481243133545,2,
R2375,zusarás,184,word,1,True,2,0.9429397583007812,2,
R2375,cenabas,185,word,2,True,2,0.9459748268127441,1,
R2375,rotarías,186,word,2,True,2,1.3710870742797852,1,
R2375,poreré,187,word,1,True,2,0.7790770530700684,2,
R2375,cedía,188,word,1,False,2,0.6678380966186523,1,
R2375,burrará,189,word,1,True,2,0.662283182144165,2,
R2375,sufrirían,190,word,2,True,2,1.1869051456451416,1,
R2375,nadaríamos,191,word,2,True,2,0.6861250400543213,1,
R2375,cumplirá,192,word,2,True,2,0.6542880535125732,1,
R2375,gruñiría,193,word,2,True,2,0.6749718189239502,1,
R2375,quemarías,194,word,2,True,2,0.7515928745269775,1,
R2375,cichiríamos,195,word,1,True,2,0.9750580787658691,2,
R2375,meterás,196,word,2,True,2,0.6581499576568604,1,
R2375,quijarían,197,word,1,True,2,0.7942311763763428,2,
R2375,imiríamos,198,word,1,True,2,0.8366477489471436,2,
R2375,honderíamos,199,word,1,True,2,0.8080301284790039,2,
R2375,chanrará,200,word,1,True,2,0.5868887901306152,2,
R2375,fanerás,201,word,1,True,2,0.9623231887817383,2,
R2375,jurabas,202,word,1,False,2,0.3387742042541504,1,
R2375,quemarás,203,word,2,True,2,0.6832108497619629,1,
R2375,gruñía,204,word,2,True,2,0.5498058795928955,1,
R2375,tosían,205,word,2,True,2,0.7490808963775635,1,
R2375,unían,206,word,2,True,2,0.606036901473999,1,
R2375,hondía,207,word,1,True,2,0.9232261180877686,2,
R2375,lamerá,208,word,1,False,2,0.9691860675811768,1,
R2375,porería,209,word,2,False,2,1.2903339862823486,2,
R2375,runaremos,210,word,1,True,2,1.0922691822052002,2,
R2375,formaban,211,word,2,True,2,0.7051758766174316,1,
R2375,lucharán,212,word,2,True,2,0.5312349796295166,1,
R2375,sauaría,213,word,1,True,2,0.7561981678009033,2,
R2375,cortaré,214,word,2,True,2,0.9109699726104736,1,
R2375,retábamos,215,word,2,True,2,1.1717920303344727,1,
R2375,focarías,216,word,1,True,2,1.9779791831970215,2,
R2375,subiremos,217,word,2,True,2,0.8549318313598633,1,
R2375,lucharía,218,word,2,True,2,0.5888440608978271,1,
R2375,cichía,219,word,1,True,2,0.7260169982910156,2,
R2375,moncerían,220,word,1,True,2,1.0519208908081055,2,
R2375,focaban,221,word,1,True,2,0.6969010829925537,2,
R2375,frinderían,222,word,1,True,2,1.85406494140625,2,
R2375,rayaban,223,word,2,True,2,0.7818760871887207,1,
R2375,rotaré,224,word,1,False,2,0.9459900856018066,1,
R2375,ardíamos,225,word,2,True,2,0.7079050540924072,1,
R2375,retaré,226,word,2,True,2,0.604846715927124,1,
R2375,subiría,227,word,2,True,2,0.5259530544281006,1,
R2375,obraré,228,word,2,True,2,0.600985050201416,1,
R2375,charlaré,229,word,2,True,2,0.5920629501342773,1,
R2375,pactará,230,word,2,True,2,0.6829607486724854,1,
R2375,quijaremos,231,word,1,True,2,0.7571120262145996,2,
R2375,sufríamos,232,word,2,True,2,0.766801118850708,1,
R2375,rayarán,233,word,2,True,2,0.92494797706604,1,
R2375,burraré,234,word,1,True,2,0.8488519191741943,2,
R2375,meterán,235,word,2,True,2,0.7233829498291016,1,
R2375,venderé,236,word,2,True,2,0.5370743274688721,1,
R2375,galaban,237,word,1,True,2,0.8448820114135742,2,
R2375,mertarás,238,word,1,True,2,1.0549581050872803,2,
R2375,quijarán,239,word,1,True,2,1.1899189949035645,2,
R2375,sumarás,240,word,2,True,2,1.2299680709838867,1,
R2375,cenarás,241,word,2,True,2,0.9618358612060547,1,
R2375,quijaban,242,word,1,True,2,0.8289539813995361,2,
R2375,luntirás,243,word,1,True,2,0.6359131336212158,2,
R2375,cederán,244,word,1,False,2,0.8856079578399658,1,
R2375,comerían,245,word,1,False,2,0.5547840595245361,1,
R2375,rimará,246,word,1,False,2,1.2149732112884521,1,
R2375,tosería,247,word,2,True,2,0.7420539855957031,1,
R2375,retarás,248,word,2,True,2,0.5921118259429932,1,
R2375,fanerían,249,word,1,True,2,0.9450948238372803,2,
R2375,cipían,250,word,1,True,2,0.6929831504821777,2,
R2375,ceflerán,251,word,1,True,2,0.777961254119873,2,
R2375,mordíamos,252,word,2,True,2,0.8839302062988281,1,
R2375,mardirían,253,word,1,True,2,1.707975149154663,2,
R2375,zusarías,254,word,1,True,2,0.8828961849212646,2,
R2375,metían,255,word,2,True,2,0.7680339813232422,1,
R2375,sumaríamos,256,word,2,True,2,0.7459671497344971,1,
R2375,pavará,257,word,1,True,2,0.6348800659179688,2,
R2375,bruvirías,258,word,1,True,2,1.2540738582611084,2,
R2375,bailarían,259,word,2,True,2,1.0899910926818848,1,
R2375,barrerían,260,word,1,False,2,1.4400098323822021,1,
R2375,barreríamos,261,word,1,False,2,1.1319479942321777,1,
R2375,chanrarán,262,word,1,True,2,1.3459289073944092,2,
R2375,frindería,263,word,1,True,2,0.7918219566345215,2,
R2375,cefleremos,264,word,1,True,2,0.5520040988922119,2,
R2375,cumplirías,265,word,2,True,2,0.687985897064209,1,
R2375,unirán,266,word,2,True,2,0.6539089679718018,1,
R2375,cetarías,267,word,1,True,2,0.7569482326507568,2,
R2375,cefleríamos,268,word,1,True,2,1.2730891704559326,2,
R2375,comerá,269,word,2,True,2,0.6669270992279053,1,
R2375,eplaban,270,word,1,True,2,0.7469921112060547,2,
R2375,imíamos,271,word,1,True,2,1.0239441394805908,2,
R2375,lacherán,272,word,1,True,2,0.6025569438934326,2,
R2375,nadaría,273,word,2,True,2,0.7638390064239502,1,
R2375,rimábamos,274,word,2,True,2,0.6819851398468018,1,
R2375,fanía,275,word,1,True,2,1.7899537086486816,2,
R2375,formará,276,word,2,True,2,0.9828670024871826,1,
R2375,focarás,277,word,1,True,2,0.8279602527618408,2,
R2375,prenderás,278,word,2,True,2,0.7699048519134521,1,
R2375,comía,279,word,2,True,2,0.4969630241394043,1,
R2375,barría,280,word,2,True,2,1.2638609409332275,1,
R2375,faltaremos,281,word,2,True,2,1.4214870929718018,1,
R2375,partían,282,word,2,True,2,0.6039180755615234,1,
R2375,cenábamos,283,word,2,True,2,0.7209830284118652,1,
R2375,cisaremos,284,word,2,False,2,1.4949159622192383,2,
R2375,cipías,285,word,1,True,2,0.733942985534668,2,
R2375,lorgaríamos,286,word,2,False,2,0.7619469165802002,2,
R2375,cederíamos,287,word,1,False,2,1.3179757595062256,1,
R2375,bailaría,288,word,2,True,2,0.7700350284576416,1,
R2375,quemaré,289,word,2,True,2,0.65273118019104,1,
R2375,corrían,290,word,2,True,2,0.5614562034606934,1,
R2375,sindará,291,word,1,True,2,0.739995002746582,2,
R2375,gruñían,292,word,2,True,2,0.7198991775512695,1,
R2375,lailará,293,word,1,True,2,0.7630448341369629,2,
R2375,cumpliremos,294,word,2,True,2,0.6869552135467529,1,
R2375,chanrarías,295,word,1,True,2,1.0788969993591309,2,
R2375,gruñirían,296,word,2,True,2,0.736947774887085,1,
R2375,hondías,297,word,1,True,2,0.6289799213409424,2,
R2375,barrería,298,word,1,False,2,2.417893171310425,1,
R2375,quijaba,299,word,1,True,2,0.7267239093780518,2,
R2375,vultarán,300,word,1,True,2,1.404236078262329,2,
R2375,besábamos,301,word,2,True,2,0.6950929164886475,1,
R2375,eplaremos,302,word,1,True,2,2.163177967071533,2,
R2375,nadarán,303,word,1,False,2,0.8339676856994629,1,
R2375,ciperemos,304,word,2,False,2,1.1849420070648193,2,
R2375,sumaba,305,word,2,True,2,0.6009111404418945,1,
R2375,cubriría,306,word,2,True,2,0.9359550476074219,1,
R2375,bruviré,307,word,1,True,2,0.6668789386749268,2,
R2375,cortarían,308,word,2,True,2,0.6995201110839844,1,
R2375,faltarías,309,word,2,True,2,0.6228740215301514,1,
R2375,moncían,310,word,1,True,2,0.6721220016479492,2,
R2375,cedíamos,311,word,1,False,2,0.6939542293548584,1,
R2375,quijarías,312,word,1,True,2,0.5969269275665283,2,
R2375,lachía,313,word,1,True,3,0.7189619541168213,2,
R2375,cisaría,314,word,1,True,3,2.0279242992401123,2,
R2375,cortábamos,315,word,2,True,3,0.7641048431396484,1,
R2375,seserías,316,word,2,False,3,1.152998924255371,2,
R2375,venderías,317,word,2,True,3,0.6948440074920654,1,
R2375,galaremos,318,word,1,True,3,0.8179628849029541,2,
R2375,eplaba,319,word,1,True,3,0.5819439888000488,2,
R2375,uniré,320,word,2,True,3,0.642977237701416,1,
R2375,zusábamos,321,word,1,True,3,0.5370810031890869,2,
R2375,obrarán,322,word,2,True,3,0.6108062267303467,1,
R2375,sufrirías,323,word,2,True,3,1.4628233909606934,1,
R2375,gruñirán,324,word,2,True,3,0.5232961177825928,1,
R2375,gruñíamos,325,word,2,True,3,0.5758452415466309,1,
R2375,arderíamos,326,word,2,True,3,0.7427599430084229,1,
R2375,bimará,327,word,1,True,3,0.8349919319152832,2,
R2375,pactaré,328,word,2,True,3,0.8700239658355713,1,
R2375,chanrábamos,329,word,1,True,3,0.8198869228363037,2,
R2375,obrarás,330,word,1,False,3,0.5560579299926758,1,
R2375,cortarías,331,word,2,True,3,0.6179351806640625,1,
R2375,lorgaría,332,word,2,False,3,0.606848955154419,2,
R2375,seseré,333,word,2,False,3,1.179914951324463,2,
R2375,honderé,334,word,1,True,3,0.7708330154418945,2,
R2375,formábamos,335,word,2,True,3,0.8000271320343018,1,
R2375,bruvirían,336,word,1,True,3,0.7138099670410156,2,
R2375,tujirías,337,word,1,True,3,1.6189377307891846,2,
R2375,maftarían,338,word,1,True,3,0.7598569393157959,2,
R2375,correrás,339,word,2,True,3,0.8213601112365723,1,
R2375,coserás,340,word,2,True,3,0.9789369106292725,1,
R2375,vendía,341,word,2,True,3,0.5219547748565674,1,
R2375,ceteremos,342,word,1,True,3,0.6859490871429443,2,
R2375,correríamos,343,word,2,True,3,0.5848081111907959,1,
R2375,lailaremos,344,word,1,True,3,0.6240599155426025,2,
R2375,bimabas,345,word,1,True,3,0.6088721752166748,2,
R2375,pactabas,346,word,2,True,3,0.7699859142303467,1,
R2375,lucharás,347,word,2,True,3,2.1490180492401123,1,
R2375,morderían,348,word,2,True,3,0.6031041145324707,1,
R2375,vultaría,349,word,2,False,3,0.6169941425323486,2,
R2375,tosías,350,word,2,True,3,0.7347879409790039,1,
R2375,cortaríamos,351,word,2,True,3,0.525935173034668,1,
R2375,poríamos,352,word,2,False,3,0.8199670314788818,2,
R2375,cichías,353,word,1,True,3,0.6080436706542969,2,
R2375,sufriríamos,354,word,2,True,3,0.8829340934753418,1,
R2375,rayarían,355,word,2,True,3,1.048983097076416,1,
R2375,prenderemos,356,word,2,True,3,0.8960659503936768,1,
R2375,somía,357,word,1,True,3,0.7972159385681152,2,
R2375,pavarían,358,word,1,True,3,0.5329148769378662,2,
R2375,coserían,359,word,2,True,3,0.7279629707336426,1,
R2375,vultaba,360,word,1,True,3,0.745880126953125,2,
R2375,zusaban,361,word,1,True,3,0.5049431324005127,2,
R2375,porían,362,word,1,True,3,0.8148152828216553,2,
R2375,prenderíamos,363,word,2,True,3,0.6720082759857178,1,
R2375,bruvirán,364,word,1,True,3,1.382021188735962,2,
R2375,subías,365,word,2,True,3,0.6451148986816406,1,
R2375,monceremos,366,word,1,True,3,0.760037899017334,2,
R2375,rotará,367,word,1,False,3,0.8359341621398926,1,
R2375,anreremos,368,word,1,True,3,1.9629449844360352,2,
R2375,barrerías,369,word,2,True,3,1.4679851531982422,1,
R2375,moncía,370,word,1,True,3,0.6879208087921143,2,
R2375,honderás,371,word,1,True,3,0.5570118427276611,2,
R2375,quemarán,372,word,2,True,3,0.9340689182281494,1,
R2375,sindaré,373,word,1,True,3,0.8700368404388428,2,
R2375,gruñiré,374,word,2,True,3,0.5970439910888672,1,
R2375,comerías,375,word,2,True,3,0.4901549816131592,1,
R2375,sumarían,376,word,2,True,3,1.5548748970031738,1,
R2375,imían,377,word,1,True,3,0.8870480060577393,2,
R2375,somerán,378,word,2,False,3,1.1734602451324463,2,
R2375,seserás,379,word,2,False,3,2.2469067573547363,2,
R2375,rotaríamos,380,word,2,True,3,2.6131231784820557,1,
R2375,imirás,381,word,1,True,3,0.8770260810852051,2,
R2375,faltarían,382,word,2,True,3,0.7289252281188965,1,
R2375,morderé,383,word,2,True,3,0.6117639541625977,1,
R2375,gacharías,384,word,2,False,3,0.7869508266448975,2,
R2375,obrará,385,word,2,True,3,0.7831790447235107,1,
R2375,anreré,386,word,1,True,3,0.6308779716491699,2,
R2375,runarás,387,word,1,True,3,0.7840471267700195,2,
R2375,frindían,388,word,1,True,3,0.970012903213501,2,
R2375,imiremos,389,word,1,True,3,1.0419540405273438,2,
R2375,burrarán,390,word,1,True,3,0.9799768924713135,2,
R2375,eplaría,391,word,1,True,3,0.6718540191650391,2,
R2375,besaríamos,392,word,2,True,3,0.8340439796447754,1,
R2375,formaré,393,word,2,True,3,0.5630719661712646,1,
R2375,jurarás,394,word,2,True,3,0.5487663745880127,1,
R2375,prendería,395,word,2,True,3,0.6069629192352295,1,
R2375,maftaríamos,396,word,1,True,3,0.7170577049255371,2,
R2375,sesías,397,word,1,True,3,0.5889101028442383,2,
R2375,cuarrirían,398,word,1,True,3,1.6167840957641602,2,
R2375,somerías,399,word,2,False,3,1.126805067062378,2,
R2375,sauarías,400,word,1,True,3,0.9070758819580078,2,
R2375,corría,401,word,2,True,3,0.9869911670684814,1,
R2375,besaré,402,word,2,True,3,0.49698376655578613,1,
R2375,cedían,403,word,1,False,3,0.6158220767974854,1,
R2375,venderán,404,word,2,True,3,0.5757920742034912,1,
R2375,cenará,405,word,2,True,3,0.5449740886688232,1,
R2375,honderían,406,word,1,True,3,0.7310378551483154,2,
R2375,lucharíamos,407,word,2,True,3,0.7819459438323975,1,
R2375,rimarán,408,word,2,True,3,0.42497992515563965,1,
R2375,mordería,409,word,2,True,3,0.6579990386962891,1,
R2375,lucharían,410,word,2,True,3,0.9278459548950195,1,
R2375,cumpliría,411,word,2,True,3,0.9739248752593994,1,
R2375,moncerías,412,word,1,True,3,0.8560359477996826,2,
R2375,casarían,413,word,2,True,3,0.6790010929107666,1,
R2375,faltaré,414,word,2,True,3,0.5630409717559814,1,
R2375,cuarriré,415,word,1,True,3,2.8629088401794434,2,
R2375,pactarás,416,word,2,True,3,1.0168440341949463,1,
R2375,rotarán,417,word,1,False,3,0.8878903388977051,1,
R2375,gruñirá,418,word,2,True,3,0.5670902729034424,1,
R2375,imiré,419,word,1,True,3,0.7246720790863037,2,
R2375,cichirá,420,word,1,True,3,0.5844419002532959,2,
R2375,meteríamos,421,word,2,True,3,0.8234963417053223,1,
R2375,bigará,422,word,1,True,3,0.8228979110717773,2,
R2375,formaremos,423,word,1,False,3,0.5270340442657471,1,
R2375,rimaré,424,word,2,True,3,0.6580400466918945,1,
R2375,lorgaba,425,word,1,True,3,1.2330060005187988,2,
R2375,lamerían,426,word,1,False,3,1.0050098896026611,1,
R2375,mertabas,427,word,1,True,3,0.6949529647827148,2,
R2375,bailaremos,428,word,2,True,3,0.6629917621612549,1,
R2375,galarás,429,word,1,True,3,0.7360701560974121,2,
R2375,mardiríamos,430,word,1,True,3,0.9155762195587158,2,
R2375,cuarriría,431,word,1,True,3,0.5629479885101318,2,
R2375,pactarían,432,word,2,True,3,1.2900378704071045,1,
R2375,zusabas,433,word,1,True,3,0.655890941619873,2,
R2375,faneremos,434,word,1,True,3,0.7487399578094482,2,
R2375,cortará,435,word,2,True,3,0.7569711208343506,1,
R2375,rotaban,436,word,2,True,3,1.0378377437591553,1,
R2375,cetaría,437,word,1,True,3,0.9451122283935547,2,
R2375,anríamos,438,word,1,True,3,0.6580820083618164,2,
R2375,rotarían,439,word,1,False,3,0.8000650405883789,1,
R2375,monceríamos,440,word,1,True,3,0.7648699283599854,2,
R2375,quemaban,441,word,2,True,3,0.7098269462585449,1,
R2375,mardirán,442,word,1,True,3,0.7789852619171143,2,
R2375,casaba,443,word,2,True,3,0.6710290908813477,1,
R2375,galarán,444,word,1,True,3,0.696897029876709,2,
R2375,casábamos,445,word,2,True,3,0.6170260906219482,1,
R2375,tuplían,446,word,1,True,3,0.8510828018188477,2,
R2375,cortarás,447,word,2,True,3,0.7080137729644775,1,
R2375,cumplíamos,448,word,2,True,3,0.634990930557251,1,
R2375,narraría,449,word,1,False,3,1.2549281120300293,1,
R2375,formarás,450,word,2,True,3,0.5878598690032959,1,
R2375,ceflías,451,word,1,True,3,0.5678150653839111,2,
R2375,gacharíamos,452,word,2,False,3,0.7868762016296387,2,
R2375,galaría,453,word,1,True,3,0.6995110511779785,2,
R2375,subíamos,454,word,2,True,3,0.931175947189331,1,
R2375,vultabas,455,word,1,True,3,0.925119161605835,2,
R2375,rayaremos,456,word,2,True,3,1.4341001510620117,1,
R2375,bigarán,457,word,1,True,3,1.033695936203003,2,
R2375,bruvirá,458,word,1,True,3,0.7110500335693359,2,
R2375,lailabas,459,word,1,True,3,0.5421092510223389,2,
R2375,cuarriremos,460,word,1,True,3,0.9779698848724365,2,
R2375,focaremos,461,word,1,True,3,0.9650962352752686,2,
R2375,frinderías,462,word,1,True,3,0.7009389400482178,2,
R2375,riteríamos,463,word,1,True,3,0.8058891296386719,2,
R2375,frinderemos,464,word,1,True,3,0.7240478992462158,2,
R2375,seseremos,465,word,1,True,3,0.5548648834228516,2,
R2375,imías,466,word,1,True,3,1.2830390930175781,2,
R2375,comería,467,word,2,True,3,0.6730859279632568,1,
R2375,prendías,468,word,2,True,3,0.5349950790405273,1,
R2375,seserán,469,word,2,False,4,1.1832280158996582,2,
R2375,sindaba,470,word,1,True,4,0.8189339637756348,2,
R2375,rayaba,471,word,1,False,4,0.8640608787536621,1,
R2375,unirás,472,word,2,True,4,0.7108800411224365,1,
R2375,juraría,473,word,2,True,4,0.6149320602416992,1,
R2375,ceflerías,474,word,1,True,4,0.9622149467468262,2,
R2375,jurarían,475,word,2,True,4,0.6578586101531982,1,
R2375,barreré,476,word,1,False,4,0.7699489593505859,1,
R2375,bigarías,477,word,1,True,4,1.0900840759277344,2,
R2375,monceré,478,word,1,True,4,2.950915813446045,2,
R2375,ciperían,479,word,1,True,4,1.4070990085601807,2,
R2375,narrarían,480,word,1,False,4,0.5179018974304199,1,
R2375,pavarás,481,word,1,True,4,0.6826968193054199,2,
R2375,somías,482,word,1,True,4,2.482012987136841,2,
R2375,temerías,483,word,2,True,4,1.6119201183319092,1,
R2375,cosían,484,word,2,True,4,0.6329290866851807,1,
R2375,faltarás,485,word,2,True,4,0.5100526809692383,1,
R2375,lailábamos,486,word,1,True,4,0.6817600727081299,2,
R2375,cetaba,487,word,1,True,4,0.5028271675109863,2,
R2375,focaría,488,word,1,True,4,0.5120849609375,2,
R2375,rimaba,489,word,2,True,4,0.7070820331573486,1,
R2375,anrerán,490,word,1,True,4,3.6911022663116455,2,
R2375,faneríamos,491,word,1,True,4,0.8069472312927246,2,
R2375,gacharían,492,word,2,False,4,0.9089739322662354,2,
R2375,runabas,493,word,1,True,4,1.0359089374542236,2,
R2375,imirá,494,word,1,True,4,0.7792460918426514,2,
R2375,bailaríamos,495,word,2,True,4,1.8135559558868408,1,
R2375,partirá,496,word,2,True,4,0.5720028877258301,1,
R2375,mardiré,497,word,2,False,4,0.5109660625457764,2,
R2375,mardían,498,word,1,True,4,0.7028999328613281,2,
R2375,cichíamos,499,word,1,True,4,0.5960421562194824,2,
R2375,frinderá,500,word,1,True,4,0.6241168975830078,2,
R2375,cenaremos,501,word,2,True,4,0.7700810432434082,1,
R2375,sauaban,502,word,1,True,4,0.9469771385192871,2,
R2375,sumaría,503,word,1,False,4,1.3520209789276123,1,
R2375,pactaría,504,word,2,True,4,0.7520182132720947,1,
R2375,cubriríamos,505,word,2,True,4,0.7280168533325195,1,
R2375,cisarás,506,word,1,True,4,3.2169883251190186,2,
R2375,sesían,507,word,2,False,4,1.2728750705718994,2,
R2375,anrería,508,word,1,True,4,0.6397838592529297,2,
R2375,morderemos,509,word,2,True,4,0.8739910125732422,1,
R2375,pactarías,510,word,1,False,4,0.8689372539520264,1,
R2375,rayaría,511,word,2,True,4,0.6488687992095947,1,
R2375,partirás,512,word,2,True,4,0.6601018905639648,1,
R2375,rondaríamos,513,word,2,True,4,1.0248448848724365,1,
R2375,lamía,514,word,1,False,4,0.8739781379699707,1,
R2375,arderemos,515,word,2,True,4,0.876013994216919,1,
R2375,correré,516,word,2,True,4,0.9689610004425049,1,
R2375,maftaban,517,word,1,True,4,0.6640148162841797,2,
R2375,chanrarás,518,word,2,False,4,0.9829320907592773,2,
R2375,ritían,519,word,1,True,4,0.9589109420776367,2,
R2375,chanraríamos,520,word,1,True,4,0.8879611492156982,2,
R2375,porerían,521,word,2,False,4,1.9340548515319824,2,
R2375,chanraré,522,word,1,True,4,0.655012845993042,2,
R2375,fanerán,523,word,1,True,4,0.5869359970092773,2,
R2375,runábamos,524,word,1,True,4,0.6950597763061523,2,
R2375,nadaba,525,word,1,False,4,0.375946044921875,1,
R2375,somerá,526,word,1,True,4,0.9772520065307617,2,
R2375,rotábamos,527,word,1,False,4,0.6719107627868652,1,
R2375,mardirías,528,word,1,True,4,0.8230688571929932,2,
R2375,correría,529,word,2,True,4,0.6520068645477295,1,
R2375,vultaremos,530,word,1,True,4,0.7230839729309082,2,
R2375,charlarán,531,word,1,False,4,0.5758240222930908,1,
R2375,lachían,532,word,1,True,4,1.7628657817840576,2,
R2375,galaba,533,word,1,True,4,0.7241201400756836,2,
R2375,cichiré,534,word,1,True,4,0.5909712314605713,2,
R2375,sumará,535,word,2,True,4,1.33585786819458,1,
R2375,charlabas,536,word,2,True,4,0.6929020881652832,1,
R2375,cederían,537,word,2,True,4,1.8982341289520264,1,
R2375,rondarán,538,word,2,True,4,1.0544190406799316,1,
R2375,sauaremos,539,word,1,True,4,0.7228772640228271,2,
R2375,pavaría,540,word,1,True,4,0.6380689144134521,2,
R2375,somerían,541,word,1,True,4,0.5448989868164062,2,
R2375,formarían,542,word,2,True,4,0.6309888362884521,1,
R2375,frindías,543,word,1,True,4,0.6521329879760742,2,
R2375,vendería,544,word,2,True,4,0.5598411560058594,1,
R2375,pavábamos,545,word,1,True,4,0.5639932155609131,2,
R2375,sufrías,546,word,2,True,4,0.6460878849029541,1,
R2375,cumplirán,547,word,2,True,4,0.5078248977661133,1,
R2375,cederías,548,word,2,True,4,0.8899500370025635,1,
R2375,bigaría,549,word,1,True,4,0.7999160289764404,2,
R2375,poría,550,word,1,True,4,0.981846809387207,2,
R2375,cumplían,551,word,2,True,4,0.8249161243438721,1,
R2375,cuarrirán,552,word,1,True,4,0.9500610828399658,2,
R2375,cumplirás,553,word,2,True,4,0.570958137512207,1,
R2375,gacharemos,554,word,2,False,4,0.9160609245300293,2,
R2375,porerás,555,word,1,True,4,0.6337699890136719,2,
R2375,rondarían,556,word,2,True,4,1.2144360542297363,1,
R2375,partirán,557,word,2,True,4,0.7300827503204346,1,
R2375,quemaba,558,word,2,True,4,0.6119720935821533,1,
R2375,riteré,559,word,2,False,4,0.42910289764404297,2,
R2375,riterá,560,word,1,True,4,0.7719550132751465,2,
R2375,bruvía,561,word,1,True,4,0.5790109634399414,2,
R2375,juraban,562,word,2,True,4,0.8094110488891602,1,
R2375,honderán,563,word,1,True,4,0.6588280200958252,2,
R2375,maftarás,564,word,1,True,4,0.6279339790344238,2,
R2375,lorgará,565,word,2,False,4,0.8049039840698242,2,
R2375,arderías,566,word,1,False,4,0.593735933303833,1,
R2375,lailaré,567,word,1,True,4,0.5950069427490234,2,
R2375,lorgaban,568,word,1,True,4,0.4148218631744385,2,
R2375,bailará,569,word,2,True,4,0.7720377445220947,1,
R2375,nadaré,570,word,2,True,4,0.5690038204193115,1,
R2375,obrabas,571,word,2,True,4,0.5619471073150635,1,
R2375,bimaríamos,572,word,1,True,4,0.9229698181152344,2,
R2375,tuplías,573,word,2,False,4,1.8890001773834229,2,
R2375,lameré,574,word,1,False,4,0.8890292644500732,1,
R2375,temía,575,word,2,True,4,1.0369832515716553,1,
R2375,prenderá,576,word,2,True,4,0.5788717269897461,1,
R2375,vultarías,577,word,1,True,4,0.6810221672058105,2,
R2375,cisábamos,578,word,2,False,4,2.000965118408203,2,
R2375,riterías,579,word,1,True,4,0.7198560237884521,2,
R2375,cenarías,580,word,2,True,4,0.8720269203186035,1,
R2375,retaban,581,word,2,True,4,0.721942663192749,1,
R2375,eplará,582,word,1,True,4,0.7049820423126221,2,
R2375,venderás,583,word,2,True,4,0.7839148044586182,1,
R2375,ardías,584,word,2,True,4,1.4838290214538574,1,
R2375,anrías,585,word,1,True,4,0.7690298557281494,2,
R2375,luntirá,586,word,1,True,4,0.5469841957092285,2,
R2375,gruñirás,587,word,2,True,4,0.7079699039459229,1,
R2375,luchábamos,588,word,2,True,4,0.6358108520507812,1,
R2375,poreríamos,589,word,1,True,4,0.8029510974884033,2,
R2375,bruviría,590,word,1,True,4,1.0660531520843506,2,
R2375,gacharás,591,word,2,False,4,0.7399299144744873,2,
R2375,someré,592,word,1,True,4,0.8691158294677734,2,
R2375,eplabas,593,word,1,True,4,0.6409406661987305,2,
R2375,frinderán,594,word,1,True,4,0.7320451736450195,2,
R2375,lameremos,595,word,1,False,4,0.6410789489746094,1,
R2375,bimarás,596,word,1,True,4,0.4710090160369873,2,
R2375,venderían,597,word,2,True,4,0.7118430137634277,1,
R2375,charlará,598,word,2,True,4,0.5238070487976074,1,
R2375,tupliremos,599,word,1,True,4,0.8089656829833984,2,
R2375,mertará,600,word,1,True,4,1.003798246383667,2,
R2375,cortabas,601,word,2,True,4,0.8658506870269775,1,
R2375,prendían,602,word,2,True,4,0.4339268207550049,1,
R2375,casabas,603,word,2,True,4,0.4568359851837158,1,
R2375,cubrirá,604,word,2,True,4,0.464022159576416,1,
R2375,besabas,605,word,2,True,4,0.4749581813812256,1,
R2375,temíamos,606,word,2,True,4,0.6454267501831055,1,
R2375,lacherás,607,word,2,False,4,0.41694164276123047,2,
R2375,cetaban,608,word,1,True,4,0.6469666957855225,2,
R2375,fundirás,609,word,1,False,4,0.5939760208129883,1,
R2375,arderían,610,word,1,False,4,0.6354649066925049,1,
R2375,moncíamos,611,word,1,True,4,1.3319778442382812,2,
R2375,luchabas,612,word,2,True,4,0.7890810966491699,1,
R2375,besarías,613,word,2,True,4,0.46593523025512695,1,
R2375,lamerías,614,word,1,False,4,0.8260619640350342,1,
R2375,metías,615,word,1,False,4,0.5419068336486816,1,
R2375,zusaré,616,word,1,True,4,0.5869870185852051,2,
R2375,prendía,617,word,2,True,4,0.5379588603973389,1,
R2375,ceteríamos,618,word,1,True,4,0.7345359325408936,2,
R2375,ceflían,619,word,1,True,4,0.5739479064941406,2,
R2375,temería,620,word,2,True,4,0.7078962326049805,1,
R2375,tuplirías,621,word,1,True,4,0.6619799137115479,2,
R2375,fundirá,622,word,1,False,4,1.6420838832855225,1,
R2375,lailarán,623,word,1,True,4,0.5179131031036377,2,
R2375,barríamos,624,word,2,True,4,1.2953588962554932,1,
R2375,sindarás,625,word,2,False,5,1.2301921844482422,2,
R2375,mertaría,626,word,1,True,5,0.7897381782531738,2,
R2375,retará,627,word,2,True,5,0.915104866027832,1,
R2375,cubría,628,word,2,True,5,0.6371870040893555,1,
R2375,bruvíamos,629,word,1,True,5,0.577150821685791,2,
R2375,narraba,630,word,1,False,5,0.9573071002960205,1,
R2375,faltabas,631,word,2,True,5,0.6843199729919434,1,
R2375,tuplirían,632,word,1,True,5,0.6040639877319336,2,
R2375,uniría,633,word,2,True,5,0.7401762008666992,1,
R2375,riterás,634,word,1,True,5,0.5760550498962402,2,
R2375,tujía,635,word,1,True,5,0.4829590320587158,2,
R2375,moncería,636,word,1,True,5,0.5460901260375977,2,
R2375,eplaré,637,word,1,True,5,2.0518651008605957,2,
R2375,arderás,638,word,1,False,5,0.37130308151245117,1,
R2375,subiríamos,639,word,2,True,5,0.7285478115081787,1,
R2375,toseremos,640,word,2,True,5,1.2233061790466309,1,
R2375,sufriremos,641,word,2,True,5,0.7801980972290039,1,
R2375,bruviríamos,642,word,1,True,5,0.6022791862487793,2,
R2375,cipía,643,word,1,True,5,0.6541049480438232,2,
R2375,casaremos,644,word,2,True,5,0.6789312362670898,1,
R2375,faneré,645,word,1,True,5,1.7559459209442139,2,
R2375,tuplía,646,word,1,True,5,0.6298441886901855,2,
R2375,besarán,647,word,1,False,5,0.6878879070281982,1,
R2375,metíamos,648,word,2,True,5,0.7749841213226318,1,
R2375,bigaban,649,word,1,True,5,0.6800088882446289,2,
R2375,vendías,650,word,2,True,5,0.6138482093811035,1,
R2375,rondaban,651,word,1,False,5,0.5445120334625244,1,
R2375,sufría,652,word,2,True,5,0.4969618320465088,1,
R2375,vultará,653,word,1,True,5,0.5787992477416992,2,
R2375,burrarías,654,word,1,True,5,1.3170440196990967,2,
R2375,subiré,655,word,2,True,5,0.5210371017456055,1,
R2375,correrá,656,word,2,True,5,0.4908180236816406,1,
R2375,bigaba,657,word,1,True,5,0.6069300174713135,2,
R2375,cuarrían,658,word,1,True,5,0.6989932060241699,2,
R2375,riterían,659,word,1,True,5,0.7649679183959961,2,
R2375,narrarías,660,word,1,False,5,2.169980049133301,1,
R2375,bimaré,661,word,1,True,5,0.660938024520874,2,
R2375,vultarían,662,word,1,True,5,0.6069550514221191,2,
R2375,faltaríamos,663,word,2,True,5,0.6999731063842773,1,
R2375,cetábamos,664,word,1,True,5,0.6298589706420898,2,
R2375,sufriré,665,word,2,True,5,0.6278839111328125,1,
R2375,comerán,666,word,2,True,5,0.8100709915161133,1,
R2375,galará,667,word,1,True,5,0.7819890975952148,2,
R2375,temerás,668,word,2,True,5,0.6029090881347656,1,
R2375,sumábamos,669,word,2,True,5,0.7040979862213135,1,
R2375,pavaban,670,word,1,True,5,0.9699709415435791,2,
R2375,luchaba,671,word,2,True,5,1.2300329208374023,1,
R2375,sindabas,672,word,2,False,5,0.6259222030639648,2,
R2375,frindía,673,word,1,True,5,0.6839549541473389,2,
R2375,narraban,674,word,1,False,5,0.637019157409668,1,
R2375,cosíamos,675,word,2,True,5,0.7191290855407715,1,
R2375,sindarán,676,word,1,True,5,1.5899460315704346,2,
R2375,toseríamos,677,word,2,True,5,0.5497453212738037,1,
R2375,lacherían,678,word,1,True,5,0.5659289360046387,2,
R2375,cubrías,679,word,2,True,5,0.6859967708587646,1,
R2375,faltará,680,word,2,True,5,0.5417690277099609,1,
R2375,bimarían,681,word,1,True,5,0.5100810527801514,2,
R2375,bailabas,682,word,2,True,5,0.678537130355835,1,
R2375,cederás,683,word,1,False,5,0.5930278301239014,1,
R2375,fanías,684,word,1,True,5,0.7005293369293213,2,
R2375,unirían,685,word,2,True,5,0.5440728664398193,1,
R2375,hondían,686,word,1,True,5,0.5900211334228516,2,
R2375,sauábamos,687,word,1,True,5,0.5660209655761719,2,
R2375,casaré,688,word,2,True,5,1.050875186920166,1,
R2375,fundirán,689,word,1,False,5,1.174811840057373,1,
R2375,cenarán,690,word,2,True,5,0.8821191787719727,1,
R2375,partirían,691,word,2,True,5,4.381073951721191,1,
R2375,cortaremos,692,word,2,True,5,0.7200007438659668,1,
R2375,retarías,693,word,2,True,5,0.7078778743743896,1,
R2375,correrán,694,word,2,True,5,0.48900294303894043,1,
R2375,cisaré,695,word,2,False,5,0.9149398803710938,2,
R2375,correrían,696,word,2,True,5,0.555898904800415,1,
R2375,cedías,697,word,1,False,5,0.6399631500244141,1,
R2375,mertaré,698,word,1,True,5,0.6507399082183838,2,
R2375,retaría,699,word,2,True,5,1.0908429622650146,1,
R2375,maftabas,700,word,2,False,5,0.5698859691619873,2,
R2375,focarán,701,word,2,False,5,0.8688669204711914,2,
R2375,pavabas,702,word,1,True,5,0.5818130970001221,2,
R2375,charlarías,703,word,2,True,5,0.9725370407104492,1,
R2375,lucharías,704,word,2,True,5,0.6508698463439941,1,
R2375,sufrían,705,word,2,True,5,0.5571329593658447,1,
R2375,ardían,706,word,2,True,5,0.6340458393096924,1,
R2375,ceterán,707,word,1,True,5,0.5288999080657959,2,
R2375,bigaremos,708,word,1,True,5,0.6248679161071777,2,
R2375,sauarían,709,word,1,True,5,0.5430862903594971,2,
R2375,cichirían,710,word,1,True,5,0.508742094039917,2,
R2375,tupliría,711,word,1,True,5,0.6739928722381592,2,
R2375,pactaremos,712,word,2,True,5,0.852086067199707,1,
R2375,chanraremos,713,word,1,True,5,0.7479450702667236,2,
R2375,cetaremos,714,word,1,True,5,0.6500568389892578,2,
R2375,cisará,715,word,1,True,5,0.3978250026702881,2,
R2375,bruvían,716,word,1,True,5,0.46207094192504883,2,
R2375,uníamos,717,word,2,True,5,0.6058270931243896,1,
R2375,focaba,718,word,1,True,5,0.5700721740722656,2,
R2375,imiría,719,word,1,True,5,0.7470099925994873,2,
R2375,tujiría,720,word,1,True,5,0.4300549030303955,2,
R2375,cetarán,721,word,1,True,5,0.8410601615905762,2,
R2375,cuarrirías,722,word,1,True,5,3.988954782485962,2,
R2375,sindarías,723,word,1,True,5,0.6731908321380615,2,
R2375,bailarías,724,word,2,True,5,0.6858377456665039,1,
R2375,galábamos,725,word,1,True,5,0.5480337142944336,2,
R2375,lachíamos,726,word,1,True,5,0.49402284622192383,2,
R2375,sumaremos,727,word,1,False,5,0.4177989959716797,1,
R2375,maftará,728,word,1,True,5,0.6526598930358887,2,
R2375,vendíamos,729,word,2,True,5,1.6129300594329834,1,
R2375,lameríamos,730,word,1,False,5,0.5489721298217773,1,
R2375,charlarían,731,word,2,True,5,0.9360191822052002,1,
R2375,lorgabas,732,word,1,True,5,0.6706738471984863,2,
R2375,luntían,733,word,1,True,5,0.7709150314331055,2,
R2375,cenaba,734,word,1,False,5,0.49196410179138184,1,
R2375,fundiré,735,word,2,True,5,2.441905975341797,1,
R2375,chanrarían,736,word,1,True,5,0.7843670845031738,2,
R2375,cederemos,737,word,1,False,5,1.2299668788909912,1,
R2375,luchará,738,word,2,True,5,0.5710699558258057,1,
R2375,sindaría,739,word,2,False,5,0.8909931182861328,2,
R2375,besaremos,740,word,2,True,5,0.5339658260345459,1,
R2375,rimarás,741,word,2,True,5,0.7268948554992676,1,
R2375,bailaré,742,word,2,True,5,0.4689290523529053,1,
R2375,barrerán,743,word,1,False,5,0.6588549613952637,1,
R2375,cichiremos,744,word,1,True,5,0.7108569145202637,2,
R2375,barrerá,745,word,2,True,5,0.7609620094299316,1,
R2375,quemaríamos,746,word,2,True,5,0.7700381278991699,1,
R2375,coserá,747,word,2,True,5,0.7129039764404297,1,
R2375,focarían,748,word,1,True,5,0.7419939041137695,2,
R2375,fanería,749,word,1,True,5,0.98990797996521,2,
R2375,rimaríamos,750,word,2,True,5,0.7604827880859375,1,
R2375,porerías,751,word,1,True,5,0.9151060581207275,2,
R2375,toserás,752,word,2,True,5,0.8497810363769531,1,
R2375,cichirás,753,word,1,True,5,0.6169137954711914,2,
R2375,rotaremos,754,word,1,False,5,2.6594479084014893,1,
R2375,anrerá,755,word,1,True,5,0.6838791370391846,2,
R2375,lailaba,756,word,1,True,5,0.5191280841827393,2,
R2375,cedería,757,word,1,False,5,0.3910548686981201,1,
R2375,meteré,758,word,2,True,5,0.9220089912414551,1,
R2375,cubrirán,759,word,2,True,5,0.6320860385894775,1,
R2375,quemabas,760,word,2,True,5,0.46189093589782715,1,
R2375,narrarán,761,word,2,True,5,0.426044225692749,1,
R2375,bailarás,762,word,2,True,5,0.5220270156860352,1,
R2375,cisarías,763,word,2,False,5,1.5700740814208984,2,
R2375,cuarría,764,word,1,True,5,0.9026551246643066,2,
R2375,faltábamos,765,word,1,False,5,0.5348660945892334,1,
R2375,comían,766,word,2,True,5,0.5249199867248535,1,
R2375,cosía,767,word,2,True,5,0.4439659118652344,1,
R2375,sindarían,768,word,1,True,5,0.6898629665374756,2,
R2375,eplaríamos,769,word,1,True,5,0.5810139179229736,2,
R2375,burraba,770,word,1,True,5,0.8120779991149902,2,
R2375,luntíamos,771,word,1,True,5,0.5409531593322754,2,
R2375,rimarían,772,word,1,False,5,0.4850921630859375,1,
R2375,comerás,773,word,2,True,5,0.5118367671966553,1,
R2375,lorgábamos,774,word,2,False,5,0.5698869228363037,2,
R2375,tujiré,775,word,1,True,5,0.5790948867797852,2,
R2375,formaríamos,776,word,1,False,5,0.6218907833099365,1,
R2375,gachaban,777,word,2,False,5,1.825941801071167,2,
R2375,besaba,778,word,2,True,5,0.5010807514190674,1,
R2375,lamerán,779,word,1,False,5,0.6527729034423828,1,
R2375,tosíamos,780,word,2,True,5,1.0809249877929688,1,
R2375,bigaré,781,word,1,True,6,0.96303391456604,2,
R2375,galarías,782,word,1,True,6,0.6499636173248291,2,
R2375,cisarán,783,word,1,True,6,0.5409138202667236,2,
R2375,temeremos,784,word,2,True,6,0.6800098419189453,1,
R2375,luntiríamos,785,word,1,True,6,1.1168339252471924,2,
R2375,charlaremos,786,word,2,True,6,0.7328870296478271,1,
R2375,toserá,787,word,2,True,6,0.7552592754364014,1,
R2375,sesía,788,word,1,True,6,1.6539580821990967,2,
R2375,luchaban,789,word,2,True,6,0.7388410568237305,1,
R2375,juraríamos,790,word,2,True,6,0.7550778388977051,1,
R2375,zusaríamos,791,word,1,True,6,0.6139640808105469,2,
R2375,focará,792,word,1,True,6,0.6188831329345703,2,
R2375,eplábamos,793,word,1,True,6,0.5218989849090576,2,
R2375,gruñiremos,794,word,2,True,6,0.636995792388916,1,
R2375,comías,795,word,2,True,6,0.508591890335083,1,
R2375,juraremos,796,word,2,True,6,0.489001989364624,1,
R2375,fundías,797,word,1,False,6,0.753108024597168,1,
R2375,quijabas,798,word,1,True,6,0.5728580951690674,2,
R2375,meterías,799,word,2,True,6,0.578850269317627,1,
R2375,rotaba,800,word,1,False,6,0.7045881748199463,1,
R2375,lorgarías,801,word,2,False,6,0.3930518627166748,2,
R2375,rayabas,802,word,2,True,6,0.5415341854095459,1,
R2375,barreremos,803,word,2,True,6,1.078881025314331,1,
R2375,honderá,804,word,1,True,6,0.6389238834381104,2,
R2375,hondería,805,word,1,True,6,0.48561787605285645,2,
R2375,rotarás,806,word,1,False,6,0.45986008644104004,1,
R2375,rondará,807,word,1,False,6,0.8119020462036133,1,
R2375,cenaban,808,word,2,True,6,0.6621057987213135,1,
R2375,subirían,809,word,2,True,6,0.5699689388275146,1,
R2375,chanrabas,810,word,2,False,6,0.3389010429382324,2,
R2375,cortarán,811,word,2,True,6,0.6878581047058105,1,
R2375,ciperán,812,word,1,True,6,0.6998639106750488,2,
R2375,bailábamos,813,word,2,True,6,0.6080920696258545,1,
R2375,obraría,814,word,2,True,6,0.5358848571777344,1,
R2375,bruviremos,815,word,1,True,6,0.5920209884643555,2,
R2375,vendían,816,word,2,True,6,0.565047025680542,1,
R2375,obraremos,817,word,2,True,6,2.3768067359924316,1,
R2375,rayarás,818,word,2,True,6,0.4829258918762207,1,
R2375,bailarán,819,word,2,True,6,0.6309859752655029,1,
R2375,zusaremos,820,word,1,True,6,0.9428050518035889,2,
R2375,tujirás,821,word,1,True,6,0.6159238815307617,2,
R2375,imirán,822,word,1,True,6,0.4479353427886963,2,
R2375,coseríamos,823,word,1,False,6,0.6080081462860107,1,
R2375,ceflía,824,word,1,True,6,0.7171070575714111,2,
R2375,partirías,825,word,2,True,6,0.5499551296234131,1,
R2375,jurábamos,826,word,2,True,6,0.7059941291809082,1,
R2375,luntía,827,word,1,True,6,0.6170549392700195,2,
R2375,bailaba,828,word,2,True,6,3.242838144302368,1,
R2375,temerían,829,word,2,True,6,0.585831880569458,1,
R2375,subirás,830,word,2,True,6,0.5010371208190918,1,
R2375,sesíamos,831,word,1,True,6,4.379997253417969,2,
R2375,prenderían,832,word,2,True,6,0.5899128913879395,1,
R2375,tuplirán,833,word,1,True,6,0.634040117263794,2,
R2375,lucharé,834,word,2,True,6,0.6281230449676514,1,
R2375,gachabas,835,word,2,False,6,0.48799896240234375,2,
R2375,narrábamos,836,word,1,False,6,0.3759429454803467,1,
R2375,cuarrías,837,word,1,True,6,0.650029182434082,2,
R2375,pactábamos,838,word,2,True,6,0.9098789691925049,1,
R2375,rotabas,839,word,1,False,6,0.579103946685791,1,
R2375,sindaremos,840,word,1,True,6,0.7988619804382324,2,
R2375,formaba,841,word,1,False,6,1.391969919204712,1,
R2375,pactarán,842,word,2,True,6,1.4708549976348877,1,
R2375,tupliré,843,word,1,True,6,0.5828738212585449,2,
R2375,eplarías,844,word,1,True,6,0.5846090316772461,2,
R2375,meterían,845,word,2,True,6,0.5859971046447754,1,
R2375,sauarás,846,word,1,True,6,0.6248300075531006,2,
R2375,ceflíamos,847,word,1,True,6,1.0430593490600586,2,
R2375,porerán,848,word,1,True,6,0.7108871936798096,2,
R2375,galaríamos,849,word,1,True,6,0.5989267826080322,2,
R2375,quemaría,850,word,2,True,6,0.7058980464935303,1,
R2375,moncerás,851,word,1,True,6,0.6270589828491211,2,
R2375,retarían,852,word,2,True,6,1.2739441394805908,1,
R2375,imía,853,word,1,True,6,0.5720529556274414,2,
R2375,gruñiríamos,854,word,2,True,6,0.8648419380187988,1,
R2375,bigábamos,855,word,1,True,6,1.7479040622711182,2,
R2375,mardirás,856,word,1,True,6,1.1618731021881104,2,
R2375,cumplirían,857,word,2,True,6,0.7318069934844971,1,
R2375,rimaremos,858,word,2,True,6,2.100008010864258,1,
R2375,unía,859,word,2,True,6,0.8149430751800537,1,
R2375,cuarríamos,860,word,1,True,6,0.7319650650024414,2,
R2375,frindíamos,861,word,1,True,6,0.6869628429412842,2,
R2375,fanían,862,word,1,True,6,0.5699038505554199,2,
R2375,lorgarás,863,word,2,False,6,0.531245231628418,2,
R2375,obraríamos,864,word,2,True,6,0.5698349475860596,1,
R2375,cubríamos,865,word,2,True,6,0.41954708099365234,1,
R2375,cisaba,866,word,1,True,6,0.5351870059967041,2,
R2375,casaban,867,word,2,True,6,0.36704421043395996,1,
R2375,cederé,868,word,2,True,6,0.6769380569458008,1,
R2375,tujiríamos,869,word,1,True,6,0.9338500499725342,2,
R2375,prenderé,870,word,2,True,6,0.5389609336853027,1,
R2375,somíamos,871,word,1,True,6,1.558020830154419,2,
R2375,morderá,872,word,2,True,6,0.45197176933288574,1,
R2375,toseré,873,word,2,True,6,0.5769772529602051,1,
R2375,obraba,874,word,2,True,6,0.47405409812927246,1,
R2375,sumaré,875,word,2,True,6,0.8048362731933594,1,
R2375,mardiría,876,word,1,True,6,0.7528121471405029,2,
R2375,honderemos,877,word,1,True,6,0.6719722747802734,2,
R2375,eplarán,878,word,1,True,6,0.5569391250610352,2,
R2375,lorgaremos,879,word,2,False,6,0.6790480613708496,2,
R2375,rayarías,880,word,2,True,6,0.5939161777496338,1,
R2375,ciperías,881,word,2,False,6,0.4339268207550049,2,
R2375,nadabas,882,word,2,True,6,0.7280371189117432,1,
R2375,cetarían,883,word,1,True,6,0.4710700511932373,2,
R2375,meterá,884,word,2,True,6,0.5464670658111572,1,
R2375,vultaban,885,word,1,True,6,0.560880184173584,2,
R2375,arderá,886,word,1,False,6,0.5057978630065918,1,
R2375,cuarrirás,887,word,1,True,6,0.5983848571777344,2,
R2375,cubrían,888,word,2,True,6,0.6370730400085449,1,
R2375,retaba,889,word,2,True,6,0.5718772411346436,1,
R2375,casarías,890,word,2,True,6,0.6239039897918701,1,
R2375,formabas,891,word,2,True,6,0.3888740539550781,1,
R2375,ciperás,892,word,1,True,6,0.5627341270446777,2,
R2375,comeríamos,893,word,2,True,6,0.6179378032684326,1,
R2375,zusarían,894,word,1,True,6,0.5731289386749268,2,
R2375,fanerías,895,word,1,True,6,0.7499327659606934,2,
R2375,mertábamos,896,word,1,True,6,0.8119590282440186,2,
R2375,retabas,897,word,2,True,6,0.6699018478393555,1,
R2375,cubrirás,898,word,2,True,6,0.6351659297943115,1,
R2375,casaríamos,899,word,2,True,6,0.5628252029418945,1,
R2375,narrará,900,word,1,False,6,0.9289989471435547,1,
R2375,bigaríamos,901,word,1,True,6,0.5929746627807617,2,
R2375,fundíamos,902,word,1,False,6,0.4659538269042969,1,
R2375,faníamos,903,word,1,True,6,0.5579211711883545,2,
R2375,sufrirá,904,word,2,True,6,0.7512507438659668,1,
R2375,bigarían,905,word,1,True,6,0.9209492206573486,2,
R2375,metería,906,word,2,True,6,0.4869229793548584,1,
R2375,bimaremos,907,word,1,True,6,0.5529718399047852,2,
R2375,morderíamos,908,word,2,True,6,0.6859431266784668,1,
R2375,mardirá,909,word,1,True,6,0.6830461025238037,2,
R2375,juraba,910,word,2,True,6,0.799997091293335,1,
R2375,rayaríamos,911,word,2,True,6,0.5859789848327637,1,
R2375,casará,912,word,2,True,6,0.5388200283050537,1,
R2375,nadarían,913,word,2,True,6,0.6809070110321045,1,
R2375,cenaríamos,914,word,2,True,6,0.5097861289978027,1,
R2375,rayaré,915,word,2,True,6,0.4078850746154785,1,
R2375,partiremos,916,word,2,True,6,0.56986403465271,1,
R2375,lorgarían,917,word,2,False,6,0.4809846878051758,2,
R2375,rondarás,918,word,1,False,6,0.6601762771606445,1,
R2375,comeremos,919,word,2,True,6,0.5211038589477539,1,
R2375,ritería,920,word,2,False,6,0.6330380439758301,2,
R2375,cumplía,921,word,2,True,6,0.6651241779327393,1,
R2375,rimaría,922,word,2,True,6,0.7828130722045898,1,
R2375,tosía,923,word,2,True,6,0.6560037136077881,1,
R2375,cetíamos,924,word,1,True,6,0.8900079727172852,2,
R2375,sindaríamos,925,word,1,True,6,0.6773450374603271,2,
R2375,subirá,926,word,2,True,6,0.6398382186889648,1,
R2375,anrían,927,word,1,True,6,0.7010068893432617,2,
R2375,formaría,928,word,2,True,6,0.5972170829772949,1,
R2375,quijaré,929,word,1,True,6,0.542827844619751,2,
R2375,luntirías,930,word,1,True,6,0.5829527378082275,2,
R2375,gachará,931,word,2,False,6,0.8188810348510742,2,
R2375,besarás,932,word,2,True,6,0.4811131954193115,1,
R2375,cisaríamos,933,word,1,True,6,0.7279798984527588,2,
R2375,sumarán,934,word,1,False,6,0.8208346366882324,1,
R2375,quemábamos,935,word,2,True,6,0.5948929786682129,1,
R2375,mertarías,936,word,2,False,6,0.4049961566925049,2,
R2375,arderán,937,word,2,True,7,0.8170461654663086,1,
R2375,vultaríamos,938,word,1,True,7,0.6308960914611816,2,
R2375,mertaban,939,word,1,True,7,0.6225380897521973,2,
R2375,cubriré,940,word,2,True,7,0.5650012493133545,1,
R2375,barrías,941,word,1,False,7,0.5587940216064453,1,
R2375,pactaba,942,word,2,True,7,0.8320398330688477,1,
R2375,lamían,943,word,1,False,7,0.6990509033203125,1,
R2375,mardía,944,word,1,True,7,2.15848708152771,2,
R2375,burrabas,945,word,1,True,7,0.691046953201294,2,
R2375,ceflerían,946,word,1,True,7,0.5309739112854004,2,
R2375,runaría,947,word,1,True,7,0.653817892074585,2,
R2375,rondaba,948,word,1,False,7,0.6280519962310791,1,
R2375,anrerás,949,word,1,True,7,0.8682651519775391,2,
R2375,cisabas,950,word,1,True,7,0.7907619476318359,2,
R2375,ceteré,951,word,2,False,7,3.4550211429595947,2,
R2375,frinderé,952,word,1,True,7,0.611968994140625,2,
R2375,formarías,953,word,2,True,7,0.6580810546875,1,
R2375,runarían,954,word,1,True,7,0.5597710609436035,2,
R2375,coserías,955,word,2,True,7,0.9601230621337891,1,
R2375,lailarás,956,word,1,True,7,0.61775803565979,2,
R2375,somerás,957,word,1,True,7,0.828887939453125,2,
R2375,seseríamos,958,word,1,True,7,1.044969081878662,2,
R2375,coserán,959,word,2,True,7,0.7420568466186523,1,
R2375,cetabas,960,word,1,True,7,0.6915493011474609,2,
R2375,cipería,961,word,1,True,7,0.5480680465698242,2,
R2375,galabas,962,word,1,True,7,0.9209318161010742,2,
R2375,mertaríamos,963,word,1,True,7,1.5959179401397705,2,
R2375,lacheremos,964,word,1,True,7,0.606889009475708,2,
R2375,charlaríamos,965,word,2,True,7,0.9169909954071045,1,
R2375,cortaba,966,word,2,True,7,0.5800693035125732,1,
R2375,cumpliríamos,967,word,2,True,7,0.33582520484924316,1,
R2375,quijaría,968,word,1,True,7,2.624022960662842,2,
R2375,pavarías,969,word,1,True,7,0.5739138126373291,2,
R2375,cortaban,970,word,2,True,7,0.7288708686828613,1,
R2375,ceterás,971,word,1,True,7,0.9294819831848145,2,
R2375,sauarán,972,word,1,True,7,0.7537777423858643,2,
R2375,narraremos,973,word,1,False,7,1.1279489994049072,1,
R2375,someremos,974,word,1,True,7,0.6420230865478516,2,
R2375,cumplías,975,word,2,True,7,0.7581470012664795,1,
R2375,anreríamos,976,word,2,False,7,0.71881103515625,2,
R2375,cubrirían,977,word,2,True,7,0.8530130386352539,1,
R2375,barrerás,978,word,2,True,7,5.420248746871948,1,
R2375,ciperá,979,word,1,True,7,0.8160340785980225,2,
R2375,somían,980,word,1,True,7,1.2029070854187012,2,
R2375,maftaré,981,word,1,True,7,0.5290849208831787,2,
R2375,cetía,982,word,1,True,7,0.43379688262939453,2,
R2375,tuplirá,983,word,1,True,7,0.3519012928009033,2,
R2375,mertaba,984,word,1,True,7,0.5180211067199707,2,
R2375,bailaban,985,word,2,True,7,0.5669529438018799,1,
R2375,runaba,986,word,1,True,7,0.7091078758239746,2,
R2375,charlarás,987,word,2,True,7,0.6879329681396484,1,
R2375,rayará,988,word,2,True,7,0.5889608860015869,1,
R2375,luntiré,989,word,1,True,7,0.5809221267700195,2,
R2375,cichiría,990,word,1,True,7,0.6279296875,2,
R2375,cetías,991,word,1,True,7,0.4189341068267822,2,
R2375,ceterá,992,word,1,True,7,0.4370748996734619,2,
R2375,charlaba,993,word,2,True,7,3.9111199378967285,1,
R2375,zusaría,994,word,1,True,7,1.0111069679260254,2,
R2375,mordías,995,word,2,True,7,0.632897138595581,1,
R2375,pavaba,996,word,1,True,7,0.5639193058013916,2,
R2375,focaré,997,word,1,True,7,2.080817222595215,2,
R2375,correremos,998,word,2,True,7,0.6419720649719238,1,
R2375,unirá,999,word,2,True,7,0.7858083248138428,1,
R2375,focábamos,1000,word,2,False,7,0.4319620132446289,2,
R2375,cipíamos,1001,word,1,True,7,0.44295406341552734,2,
R2375,rondabas,1002,word,2,True,7,0.6008050441741943,1,
R2375,lacherías,1003,word,1,True,7,0.4970548152923584,2,
R2375,retarán,1004,word,1,False,7,0.6031081676483154,1,
R2375,venderá,1005,word,2,True,7,0.5530140399932861,1,
R2375,besaban,1006,word,2,True,7,0.4294731616973877,1,
R2375,lailaríamos,1007,word,1,True,7,0.5859768390655518,2,
R2375,uniríamos,1008,word,2,True,7,0.618070125579834,1,
R2375,lamíamos,1009,word,1,False,7,0.5859079360961914,1,
R2375,sufrirás,1010,word,2,True,7,0.6591610908508301,1,
R2375,zusará,1011,word,1,True,7,0.5249238014221191,2,
R2375,nadará,1012,word,2,True,7,0.45287108421325684,1,
R2375,partías,1013,word,2,True,7,0.5519232749938965,1,
R2375,morderán,1014,word,2,True,7,0.733928918838501,1,
R2375,burraríamos,1015,word,1,True,7,0.6781570911407471,2,
R2375,lailaban,1016,word,1,True,7,0.5896570682525635,2,
R2375,lailarían,1017,word,1,True,7,0.6588878631591797,2,
R2375,pavaremos,1018,word,1,True,7,0.6640431880950928,2,
R2375,jurarías,1019,word,2,True,7,0.6210620403289795,1,
R2375,temías,1020,word,2,True,7,0.5099928379058838,1,
R2375,casarán,1021,word,2,True,7,0.5311160087585449,1,
R2375,anría,1022,word,1,True,7,0.7440431118011475,2,
R2375,runarías,1023,word,2,False,7,0.7419338226318359,2,
R2375,quijaríamos,1024,word,1,True,7,0.6210286617279053,2,
R2375,corríamos,1025,word,2,True,7,1.0068669319152832,1,
R2375,ciperíamos,1026,word,1,True,7,0.5109512805938721,2,
R2375,comeré,1027,word,2,True,7,0.833082914352417,1,
R2375,bimarán,1028,word,1,True,7,0.6571042537689209,2,
R2375,obrarías,1029,word,2,True,7,0.6758480072021484,1,
R2375,coseré,1030,word,2,True,7,0.6027159690856934,1,
R2375,sufriría,1031,word,2,True,7,0.6829080581665039,1,
R2375,cetaré,1032,word,1,True,7,0.8128640651702881,2,
R2375,eplarían,1033,word,1,True,7,0.5750410556793213,2,
R2375,fundía,1034,word,1,False,7,0.566054105758667,1,
R2375,bimaban,1035,word,1,True,7,0.5827460289001465,2,
R2375,besarían,1036,word,2,True,7,0.8099479675292969,1,
R2375,rondábamos,1037,word,2,True,7,0.5869488716125488,1,
R2375,meteremos,1038,word,2,True,7,0.598930835723877,1,
R2375,cosería,1039,word,2,True,7,0.5220568180084229,1,
R2375,zusarán,1040,word,1,True,7,0.6011419296264648,2,
R2375,someríamos,1041,word,1,True,7,0.7120850086212158,2,
R2375,quijará,1042,word,1,True,7,0.5970439910888672,2,
R2375,lachería,1043,word,1,True,7,0.5131661891937256,2,
R2375,sauabas,1044,word,1,True,7,0.41396617889404297,2,
R2375,riterán,1045,word,1,True,7,0.43013477325439453,2,
R2375,mardiremos,1046,word,1,True,7,1.0708038806915283,2,
R2375,sauaríamos,1047,word,1,True,7,0.512901782989502,2,
R2375,tujían,1048,word,1,True,7,0.44379401206970215,2,
R2375,obrábamos,1049,word,2,True,7,0.6239926815032959,1,
R2375,partiría,1050,word,2,True,7,0.5751771926879883,1,
R2375,maftarías,1051,word,1,True,7,0.5558242797851562,2,
R2375,ritíamos,1052,word,2,False,7,0.6963000297546387,2,
R2375,narraré,1053,word,1,False,7,0.6291310787200928,1,
R2375,cetían,1054,word,1,True,7,0.6050567626953125,2,
R2375,seserá,1055,word,1,True,7,0.4762909412384033,2,
R2375,galarían,1056,word,1,True,7,0.49875593185424805,2,
R2375,lachías,1057,word,1,True,7,0.49106884002685547,2,
R2375,juraré,1058,word,2,True,7,0.6828961372375488,1,
R2375,mertarían,1059,word,1,True,7,0.6410670280456543,2,
R2375,toserían,1060,word,1,False,7,0.4350709915161133,1,
R2375,barrían,1061,word,2,True,7,0.8634717464447021,1,
R2375,nadarías,1062,word,2,True,7,0.6881890296936035,1,
R2375,cosías,1063,word,2,True,7,0.5478739738464355,1,
R2375,narraríamos,1064,word,2,True,7,0.5239200592041016,1,
R2375,cichían,1065,word,1,True,7,0.6187729835510254,2,
R2375,fanerá,1066,word,1,True,7,0.6029810905456543,2,
R2375,retaremos,1067,word,2,True,7,0.811898946762085,1,
R2375,rondaría,1068,word,2,True,7,0.8129971027374268,1,
R2375,ritías,1069,word,1,True,7,1.1600518226623535,2,
R2375,lorgaré,1070,word,1,True,7,1.2142362594604492,2,
R2375,casarás,1071,word,1,False,7,0.48572206497192383,1,
R2375,cumpliré,1072,word,2,True,7,0.4922299385070801,1,
R2375,prenderán,1073,word,2,True,7,0.59710693359375,1,
R2375,cefleré,1074,word,1,True,7,0.6012210845947266,2,
R2375,vultarás,1075,word,1,True,7,0.77634596824646,2,
R2375,gruñías,1076,word,2,True,7,0.716235876083374,1,
R2375,sufrirán,1077,word,2,True,7,0.6450769901275635,1,
R2375,pactaban,1078,word,1,False,7,1.448179006576538,1,
R2375,rimabas,1079,word,2,True,7,0.6431729793548584,1,
R2375,rayábamos,1080,word,2,True,7,0.5713238716125488,1,
R2375,nadarás,1081,word,2,True,7,0.5893111228942871,1,
R2375,chanraba,1082,word,1,True,7,0.9362587928771973,2,
R2375,subirías,1083,word,1,False,7,0.5647480487823486,1,
R2375,sauaba,1084,word,1,True,7,0.6645009517669678,2,
R2375,moncerá,1085,word,1,True,7,0.5473620891571045,2,
R2375,porías,1086,word,2,False,7,0.46214985847473145,2,
R2375,besaría,1087,word,2,True,7,0.7572009563446045,1,
R2375,luntiría,1088,word,1,True,7,0.5649480819702148,2,
R2375,lucharemos,1089,word,2,True,7,0.64314866065979,1,
R2375,ceflerá,1090,word,1,True,7,0.497128963470459,2,
R2375,nadábamos,1091,word,2,True,7,0.49622416496276855,1,
R2375,porerá,1092,word,1,True,7,0.6080858707427979,2,
