participant,stimuli,trialNum,target_type,response,correct,block,reaction_time,trigger,
R2380,sumarán,1,word,2,True,1,0.9260311126708984,1,
R2380,sesías,2,word,1,True,1,1.7129302024841309,2,
R2380,obrarán,3,word,2,True,1,1.1480293273925781,1,
R2380,coseríamos,4,word,2,True,1,1.476898193359375,1,
R2380,cubrías,5,word,2,True,1,1.2930209636688232,1,
R2380,seseríamos,6,word,1,True,1,1.4050188064575195,2,
R2380,lorgará,7,word,2,False,1,1.1432299613952637,2,
R2380,luntiré,8,word,1,True,1,1.476032018661499,2,
R2380,sauaba,9,word,1,True,1,1.6209568977355957,2,
R2380,temería,10,word,1,False,1,1.454895257949829,1,
R2380,imirás,11,word,2,False,1,1.758880853652954,2,
R2380,rimábamos,12,word,1,False,1,1.795274019241333,1,
R2380,lailará,13,word,1,True,1,1.1220741271972656,2,
R2380,corría,14,word,1,False,1,1.4479169845581055,1,
R2380,ceterás,15,word,2,False,1,1.783038854598999,2,
R2380,gruñiré,16,word,1,False,1,0.9458649158477783,1,
R2380,zusábamos,17,word,1,True,1,1.4178719520568848,2,
R2380,temíamos,18,word,1,False,1,1.4631178379058838,1,
R2380,partirá,19,word,2,True,1,1.198930025100708,1,
R2380,jurarías,20,word,1,False,1,1.5864808559417725,1,
R2380,chanrarás,21,word,2,False,1,1.7757930755615234,2,
R2380,hondería,22,word,1,True,1,1.5149717330932617,2,
R2380,runaban,23,word,1,True,1,1.3138949871063232,2,
R2380,riterá,24,word,2,False,1,1.7999448776245117,2,
R2380,sufría,25,word,2,True,1,1.286972999572754,1,
R2380,imiría,26,word,2,False,1,2.2618491649627686,2,
R2380,quijaré,27,word,2,False,1,3.264042854309082,2,
R2380,cenábamos,28,word,2,True,1,3.239093065261841,1,
R2380,eplaría,29,word,1,True,1,1.935124158859253,2,
R2380,charlábamos,30,word,2,True,1,3.983107089996338,1,
R2380,riterían,31,word,2,False,1,2.902017116546631,2,
R2380,temerá,32,word,2,True,1,2.9059789180755615,1,
R2380,faltará,33,word,1,False,1,1.9699478149414062,1,
R2380,bruvíamos,34,word,1,True,1,1.9249489307403564,2,
R2380,zusarías,35,word,1,True,1,2.21805477142334,2,
R2380,correré,36,word,1,False,1,3.247920036315918,1,
R2380,cosías,37,word,2,True,1,4.340996265411377,1,
R2380,lailarás,38,word,2,False,1,1.6589610576629639,2,
R2380,obrábamos,39,word,1,False,1,1.822991132736206,1,
R2380,cisaba,40,word,1,True,1,1.8510031700134277,2,
R2380,mertarían,41,word,1,True,1,2.014005661010742,2,
R2380,bigaría,42,word,1,True,1,1.2447869777679443,2,
R2380,ceflerían,43,word,1,True,1,1.9409599304199219,2,
R2380,venderíamos,44,word,2,True,1,2.8569328784942627,1,
R2380,corrías,45,word,1,False,1,1.1568520069122314,1,
R2380,mardirás,46,word,1,True,1,2.0119669437408447,2,
R2380,sufrirían,47,word,1,False,1,1.466904878616333,1,
R2380,poreré,48,word,1,True,1,1.128978967666626,2,
R2380,bigarás,49,word,1,True,1,1.502925157546997,2,
R2380,retaban,50,word,1,False,1,2.1440858840942383,1,
R2380,lachían,51,word,1,True,1,2.6679790019989014,2,
R2380,fundirían,52,word,2,True,1,3.338926076889038,1,
R2380,sufríamos,53,word,1,False,1,2.63700795173645,1,
R2380,rimaba,54,word,2,True,1,2.1379029750823975,1,
R2380,tupliremos,55,word,1,True,1,2.3570139408111572,2,
R2380,zusaría,56,word,1,True,1,2.5691308975219727,2,
R2380,narraría,57,word,2,True,1,3.6779420375823975,1,
R2380,frinderían,58,word,1,True,1,5.103880882263184,2,
R2380,bailaría,59,word,1,False,1,4.967875003814697,1,
R2380,prendían,60,word,1,False,1,3.051854133605957,1,
R2380,cichiríamos,61,word,1,True,1,3.7231011390686035,2,
R2380,sindaba,62,word,1,True,1,1.2618989944458008,2,
R2380,imiré,63,word,1,True,1,2.2328240871429443,2,
R2380,lachía,64,word,1,True,1,4.6131227016448975,2,
R2380,pactaríamos,65,word,p,False,1,12.57411503791809,1,
R2380,temerán,66,word,1,False,1,2.0079171657562256,1,
R2380,cenarán,67,word,2,True,1,1.5859699249267578,1,
R2380,burraba,68,word,1,True,1,1.5587668418884277,2,
R2380,lamerías,69,word,1,False,1,1.2519810199737549,1,
R2380,sufriría,70,word,1,False,1,1.2530078887939453,1,
R2380,prenderías,71,word,1,False,1,1.297050952911377,1,
R2380,cisarás,72,word,1,True,1,1.2567949295043945,2,
R2380,lacheríamos,73,word,2,False,1,1.5289900302886963,2,
R2380,subirás,74,word,1,False,1,1.3888859748840332,1,
R2380,seserá,75,word,2,False,1,1.4999749660491943,2,
R2380,pactaremos,76,word,1,False,1,0.9508521556854248,1,
R2380,lacherías,77,word,1,True,1,1.0949242115020752,2,
R2380,tosería,78,word,1,False,1,1.2919352054595947,1,
R2380,cedían,79,word,2,True,1,1.1560440063476562,1,
R2380,someremos,80,word,1,True,1,1.0000357627868652,2,
R2380,zusaré,81,word,1,True,1,0.7189908027648926,2,
R2380,venderías,82,word,2,True,1,1.1228530406951904,1,
R2380,rondabas,83,word,1,False,1,0.8513200283050537,1,
R2380,riterán,84,word,1,True,1,0.94805908203125,2,
R2380,obraré,85,word,2,True,1,0.959831953048706,1,
R2380,pactará,86,word,1,False,1,0.793921947479248,1,
R2380,runaría,87,word,1,True,1,0.6788780689239502,2,
R2380,lamían,88,word,1,False,1,0.6589350700378418,1,
R2380,obrarían,89,word,2,True,1,0.9740028381347656,1,
R2380,galarían,90,word,2,False,1,1.3258991241455078,2,
R2380,burrarán,91,word,1,True,1,0.99810791015625,2,
R2380,galabas,92,word,1,True,1,0.8509843349456787,2,
R2380,porían,93,word,1,True,1,0.9551408290863037,2,
R2380,cumplirán,94,word,2,True,1,1.2499830722808838,1,
R2380,prenderán,95,word,1,False,1,0.995922327041626,1,
R2380,quijarías,96,word,1,True,1,0.921954870223999,2,
R2380,arderás,97,word,1,False,1,0.9390337467193604,1,
R2380,zusaríamos,98,word,1,True,1,0.8629751205444336,2,
R2380,jurarían,99,word,1,False,1,1.368887186050415,1,
R2380,mertaremos,100,word,1,True,1,0.692986249923706,2,
R2380,luntirá,101,word,1,True,1,0.6180160045623779,2,
R2380,burrarían,102,word,1,True,1,1.3812370300292969,2,
R2380,cetarían,103,word,1,True,1,0.9137260913848877,2,
R2380,jurarán,104,word,1,False,1,1.4679100513458252,1,
R2380,gachaban,105,word,1,True,1,0.9388689994812012,2,
R2380,lacheré,106,word,1,True,1,1.320885181427002,2,
R2380,galaba,107,word,1,True,1,0.507904052734375,2,
R2380,rayarás,108,word,2,True,1,1.5718169212341309,1,
R2380,bigaban,109,word,1,True,1,0.8609828948974609,2,
R2380,casaríamos,110,word,2,True,1,1.124129056930542,1,
R2380,tuplirás,111,word,1,True,1,1.1929128170013428,2,
R2380,rayarían,112,word,2,True,1,1.4959781169891357,1,
R2380,maftarías,113,word,1,True,1,1.3780608177185059,2,
R2380,mertarás,114,word,1,True,1,1.9309639930725098,2,
R2380,eplaré,115,word,1,True,1,0.7791008949279785,2,
R2380,subirán,116,word,1,False,1,0.8019819259643555,1,
R2380,luntirán,117,word,1,True,1,0.8170180320739746,2,
R2380,bigarían,118,word,1,True,1,0.8588812351226807,2,
R2380,rayábamos,119,word,1,False,1,0.7998871803283691,1,
R2380,sumábamos,120,word,1,False,1,1.0559587478637695,1,
R2380,casarás,121,word,2,True,1,1.340852975845337,1,
R2380,cubrían,122,word,2,True,1,1.4908897876739502,1,
R2380,toseremos,123,word,1,False,1,1.0260717868804932,1,
R2380,focarías,124,word,1,True,1,2.13702130317688,2,
R2380,prenderé,125,word,1,False,1,2.0944111347198486,1,
R2380,toserán,126,word,2,True,1,0.8739402294158936,1,
R2380,tujirías,127,word,1,True,1,0.8229146003723145,2,
R2380,casaba,128,word,2,True,1,0.960014820098877,1,
R2380,pavaban,129,word,1,True,1,1.2649931907653809,2,
R2380,lamerás,130,word,1,False,1,1.036025047302246,1,
R2380,bimaré,131,word,1,True,1,1.1350529193878174,2,
R2380,sufriré,132,word,2,True,1,1.2159931659698486,1,
R2380,formaría,133,word,2,True,1,0.9070267677307129,1,
R2380,ritían,134,word,1,True,1,0.9696650505065918,2,
R2380,lorgarás,135,word,1,True,1,1.0459272861480713,2,
R2380,cumpliré,136,word,2,True,1,1.4349710941314697,1,
R2380,bruviría,137,word,1,True,1,0.8409621715545654,2,
R2380,pavaré,138,word,1,True,1,0.8318860530853271,2,
R2380,toserían,139,word,2,True,1,1.1380438804626465,1,
R2380,tuplían,140,word,1,True,1,0.816917896270752,2,
R2380,rotaba,141,word,2,True,1,1.1289629936218262,1,
R2380,cichías,142,word,1,True,1,1.202056884765625,2,
R2380,temerás,143,word,1,False,1,0.4798707962036133,1,
R2380,luchaban,144,word,1,False,1,1.0780344009399414,1,
R2380,comería,145,word,1,False,1,1.7089128494262695,1,
R2380,mertarías,146,word,2,False,1,1.6585180759429932,2,
R2380,nadará,147,word,1,False,1,1.1619269847869873,1,
R2380,bailaremos,148,word,2,True,1,1.2879359722137451,1,
R2380,anrían,149,word,1,True,1,1.0548069477081299,2,
R2380,uníamos,150,word,1,False,1,1.0610899925231934,1,
R2380,bruviremos,151,word,1,True,1,0.9208321571350098,2,
R2380,sufrías,152,word,1,False,1,1.4541077613830566,1,
R2380,cisábamos,153,word,1,True,1,0.9420821666717529,2,
R2380,burrarás,154,word,1,True,1,1.0868721008300781,2,
R2380,sumarías,155,word,1,False,1,1.127838134765625,1,
R2380,frindía,156,word,1,True,1,0.8769259452819824,2,
R2380,quemarán,157,word,1,False,2,1.481964111328125,1,
R2380,lailaría,158,word,1,True,2,1.0878899097442627,2,
R2380,charlará,159,word,1,False,2,1.0719201564788818,1,
R2380,formaba,160,word,2,True,2,1.1949372291564941,1,
R2380,cichirá,161,word,1,True,2,0.715155839920044,2,
R2380,cumplía,162,word,2,True,2,0.7929162979125977,1,
R2380,chanraban,163,word,1,True,2,1.1629199981689453,2,
R2380,sauaríamos,164,word,1,True,2,1.5129590034484863,2,
R2380,bailaban,165,word,2,True,2,0.8040339946746826,1,
R2380,tuplíamos,166,word,1,True,2,0.8868808746337891,2,
R2380,lucharían,167,word,1,False,2,1.3839740753173828,1,
R2380,jurará,168,word,1,False,2,1.2120938301086426,1,
R2380,chanraba,169,word,1,True,2,1.043633222579956,2,
R2380,sauaré,170,word,1,True,2,0.6770789623260498,2,
R2380,narraré,171,word,1,False,2,1.1258432865142822,1,
R2380,morderán,172,word,1,False,2,1.098020076751709,1,
R2380,vendían,173,word,2,True,2,0.9549839496612549,1,
R2380,maftaremos,174,word,1,True,2,0.8249208927154541,2,
R2380,bailaríamos,175,word,2,True,2,1.1669740676879883,1,
R2380,lorgaban,176,word,2,False,2,1.1820569038391113,2,
R2380,chanrábamos,177,word,1,True,2,1.1630001068115234,2,
R2380,ceflíamos,178,word,1,True,2,1.1250028610229492,2,
R2380,cisaré,179,word,1,True,2,0.7159519195556641,2,
R2380,eplaremos,180,word,1,True,2,1.2789649963378906,2,
R2380,frinderán,181,word,1,True,2,0.7748990058898926,2,
R2380,gruñirás,182,word,1,False,2,0.982938289642334,1,
R2380,gachará,183,word,1,True,2,0.9640231132507324,2,
R2380,porerían,184,word,1,True,2,0.8279039859771729,2,
R2380,seserías,185,word,2,False,2,1.7009608745574951,2,
R2380,cubrirías,186,word,1,False,2,1.3737189769744873,1,
R2380,coserá,187,word,1,False,2,1.3760008811950684,1,
R2380,morderá,188,word,2,True,2,1.5408387184143066,1,
R2380,cumpliría,189,word,1,False,2,1.552961826324463,1,
R2380,somíamos,190,word,1,True,2,1.1238110065460205,2,
R2380,sufrirán,191,word,2,True,2,1.7147951126098633,1,
R2380,lameríamos,192,word,1,False,2,0.9300220012664795,1,
R2380,moncerán,193,word,1,True,2,1.0520539283752441,2,
R2380,temeré,194,word,2,True,2,1.2710998058319092,1,
R2380,charlaban,195,word,1,False,2,1.1449508666992188,1,
R2380,pactábamos,196,word,1,False,2,1.478079080581665,1,
R2380,focaría,197,word,1,True,2,1.350165843963623,2,
R2380,obrará,198,word,1,False,2,1.2160911560058594,1,
R2380,frinderá,199,word,1,True,2,0.7229359149932861,2,
R2380,temías,200,word,2,True,2,1.1420502662658691,1,
R2380,cisarán,201,word,1,True,2,0.9814341068267822,2,
R2380,unía,202,word,2,True,2,1.0760889053344727,1,
R2380,somerás,203,word,1,True,2,2.9259676933288574,2,
R2380,cortaríamos,204,word,1,False,2,3.2380096912384033,1,
R2380,mardíamos,205,word,1,True,2,0.6939971446990967,2,
R2380,vendías,206,word,2,True,2,1.3020143508911133,1,
R2380,honderás,207,word,1,True,2,1.418907880783081,2,
R2380,chanrabas,208,word,1,True,2,1.2440712451934814,2,
R2380,sindaré,209,word,1,True,2,1.2739839553833008,2,
R2380,bailaba,210,word,2,True,2,2.1828808784484863,1,
R2380,cenaremos,211,word,2,True,2,1.2431108951568604,1,
R2380,eplaríamos,212,word,1,True,2,1.072882890701294,2,
R2380,retaremos,213,word,1,False,2,2.2500507831573486,1,
R2380,mertaban,214,word,1,True,2,1.2328829765319824,2,
R2380,moncerá,215,word,1,True,2,1.2669408321380615,2,
R2380,partirás,216,word,1,False,2,1.3458139896392822,1,
R2380,rayarías,217,word,1,False,2,2.9449031352996826,1,
R2380,formábamos,218,word,2,True,2,1.9339690208435059,1,
R2380,unirás,219,word,1,False,2,2.753915786743164,1,
R2380,temerías,220,word,2,True,2,1.6199860572814941,1,
R2380,casábamos,221,word,1,False,2,1.7432301044464111,1,
R2380,narrarán,222,word,1,False,2,1.4971959590911865,1,
R2380,charlaremos,223,word,2,True,2,1.7942311763763428,1,
R2380,gruñiría,224,word,1,False,2,1.5611159801483154,1,
R2380,mardiremos,225,word,1,True,2,1.8402628898620605,2,
R2380,bimabas,226,word,1,True,2,1.240281105041504,2,
R2380,bailábamos,227,word,1,False,2,1.9698832035064697,1,
R2380,moncíamos,228,word,1,True,2,1.1783359050750732,2,
R2380,cetaremos,229,word,1,True,2,1.8372840881347656,2,
R2380,toserías,230,word,1,False,2,1.9460639953613281,1,
R2380,pavarían,231,word,1,True,2,1.5562329292297363,2,
R2380,luntiremos,232,word,1,True,2,1.3911049365997314,2,
R2380,obraban,233,word,2,True,2,1.7738959789276123,1,
R2380,obrarás,234,word,2,True,2,1.2100839614868164,1,
R2380,cuarrirá,235,word,1,True,2,1.838047981262207,2,
R2380,sauábamos,236,word,1,True,2,1.1583271026611328,2,
R2380,galaremos,237,word,1,True,2,1.4976677894592285,2,
R2380,somerías,238,word,1,True,2,1.0428740978240967,2,
R2380,focarán,239,word,2,False,2,1.137897253036499,2,
R2380,unías,240,word,1,False,2,1.7495789527893066,1,
R2380,sufriremos,241,word,2,True,2,1.5070412158966064,1,
R2380,mertaríamos,242,word,1,True,2,1.9508979320526123,2,
R2380,sindábamos,243,word,1,True,2,1.9487459659576416,2,
R2380,besaré,244,word,1,False,2,2.2481191158294678,1,
R2380,sindará,245,word,1,True,2,1.2570691108703613,2,
R2380,cederás,246,word,1,False,2,2.0699968338012695,1,
R2380,lacherá,247,word,1,True,2,1.6941039562225342,2,
R2380,imirías,248,word,1,True,2,1.0761170387268066,2,
R2380,coseré,249,word,1,False,2,1.2060608863830566,1,
R2380,burraría,250,word,1,True,2,1.7549889087677002,2,
R2380,seseremos,251,word,1,True,2,1.7759010791778564,2,
R2380,rimarías,252,word,1,False,2,1.287919044494629,1,
R2380,seseré,253,word,1,True,2,0.8907647132873535,2,
R2380,ardías,254,word,1,False,2,2.242948055267334,1,
R2380,arderemos,255,word,1,False,2,0.9658899307250977,1,
R2380,somías,256,word,1,True,2,0.9839069843292236,2,
R2380,lameremos,257,word,1,False,2,1.1989459991455078,1,
R2380,mardían,258,word,1,True,2,2.247990131378174,2,
R2380,bigabas,259,word,1,True,2,2.2709128856658936,2,
R2380,gruñiremos,260,word,1,False,2,0.9458842277526855,1,
R2380,rimaré,261,word,1,False,2,1.2048258781433105,1,
R2380,gacharemos,262,word,1,True,2,1.025036096572876,2,
R2380,poríamos,263,word,1,True,2,1.8999578952789307,2,
R2380,uniremos,264,word,2,True,2,1.7379422187805176,1,
R2380,mardiría,265,word,1,True,2,1.6649258136749268,2,
R2380,frinderemos,266,word,1,True,2,1.188019037246704,2,
R2380,bigábamos,267,word,1,True,2,2.378830671310425,2,
R2380,moncías,268,word,1,True,2,1.4069249629974365,2,
R2380,rotarías,269,word,1,False,2,1.550976037979126,1,
R2380,gacharé,270,word,1,True,2,1.9928760528564453,2,
R2380,sumaban,271,word,1,False,2,2.003006935119629,1,
R2380,bimaba,272,word,1,True,2,1.748962163925171,2,
R2380,quijaría,273,word,1,True,2,1.8000519275665283,2,
R2380,charlarías,274,word,1,False,2,1.9120509624481201,1,
R2380,cortaremos,275,word,1,False,2,2.6328887939453125,1,
R2380,formarán,276,word,2,True,2,1.1310110092163086,1,
R2380,morderemos,277,word,1,False,2,1.170957088470459,1,
R2380,tujía,278,word,1,True,2,1.647892951965332,2,
R2380,metían,279,word,1,False,2,1.3459157943725586,1,
R2380,besaban,280,word,1,False,2,2.9530792236328125,1,
R2380,tujiríamos,281,word,1,True,2,2.520253896713257,2,
R2380,narraban,282,word,1,False,2,0.9279749393463135,1,
R2380,vultarías,283,word,1,True,2,1.2049329280853271,2,
R2380,someré,284,word,1,True,2,1.3360579013824463,2,
R2380,temeríamos,285,word,1,False,2,1.0398869514465332,1,
R2380,focaré,286,word,1,True,2,1.4633419513702393,2,
R2380,fundiría,287,word,1,False,2,1.455185890197754,1,
R2380,poreremos,288,word,1,True,2,1.4669809341430664,2,
R2380,comían,289,word,2,True,2,1.6309669017791748,1,
R2380,frindían,290,word,1,True,2,0.830967903137207,2,
R2380,coserás,291,word,1,False,2,1.5572662353515625,1,
R2380,barrerán,292,word,1,False,2,0.6830310821533203,1,
R2380,cosía,293,word,1,False,2,0.7650790214538574,1,
R2380,cumpliremos,294,word,1,False,2,1.1449811458587646,1,
R2380,barreremos,295,word,1,False,2,0.8779160976409912,1,
R2380,sauarás,296,word,1,True,2,1.2480800151824951,2,
R2380,fanerían,297,word,1,True,2,1.0428931713104248,2,
R2380,sindabas,298,word,1,True,2,1.1519360542297363,2,
R2380,cisarían,299,word,1,True,2,0.8379757404327393,2,
R2380,luntía,300,word,1,True,2,1.5827889442443848,2,
R2380,faneríamos,301,word,1,True,2,1.020949125289917,2,
R2380,sauará,302,word,1,True,2,0.9939250946044922,2,
R2380,cenaban,303,word,2,True,2,0.9627869129180908,1,
R2380,pavaremos,304,word,2,False,2,1.466966152191162,2,
R2380,sindarías,305,word,1,True,2,0.46490001678466797,2,
R2380,ceteríamos,306,word,1,True,2,1.123885154724121,2,
R2380,comía,307,word,2,True,2,0.8758840560913086,1,
R2380,bimaríamos,308,word,1,True,2,1.3769841194152832,2,
R2380,formarás,309,word,1,False,2,1.3810951709747314,1,
R2380,lamería,310,word,1,False,2,2.566992998123169,1,
R2380,prendías,311,word,2,True,2,1.219099760055542,1,
R2380,quijaban,312,word,2,False,2,2.293962001800537,2,
R2380,chanraría,313,word,1,True,3,1.2494258880615234,2,
R2380,eplarás,314,word,1,True,3,1.5779199600219727,2,
R2380,somería,315,word,1,True,3,1.0179939270019531,2,
R2380,quemará,316,word,1,False,3,0.8490080833435059,1,
R2380,runábamos,317,word,2,False,3,1.1268537044525146,2,
R2380,imían,318,word,1,True,3,0.9912750720977783,2,
R2380,cubrirían,319,word,2,True,3,1.4340317249298096,1,
R2380,mordía,320,word,1,False,3,1.5380091667175293,1,
R2380,mordías,321,word,2,True,3,1.5820841789245605,1,
R2380,partiré,322,word,2,True,3,1.3380770683288574,1,
R2380,partiría,323,word,2,True,3,1.8050696849822998,1,
R2380,lacherán,324,word,1,True,3,1.4069087505340576,2,
R2380,tujirán,325,word,1,True,3,1.8959202766418457,2,
R2380,focará,326,word,1,True,3,1.3291988372802734,2,
R2380,galarán,327,word,1,True,3,0.8878610134124756,2,
R2380,anrerán,328,word,1,True,3,0.9119999408721924,2,
R2380,quemabas,329,word,2,True,3,1.2518601417541504,1,
R2380,quijaríamos,330,word,2,False,3,1.701575756072998,2,
R2380,bimaremos,331,word,1,True,3,1.4309887886047363,2,
R2380,focaba,332,word,2,False,3,1.03187894821167,2,
R2380,cisará,333,word,1,True,3,1.8730099201202393,2,
R2380,ciperías,334,word,1,True,3,1.3010919094085693,2,
R2380,bruvirán,335,word,1,True,3,1.5939559936523438,2,
R2380,retábamos,336,word,1,False,3,1.3459970951080322,1,
R2380,charlabas,337,word,2,True,3,1.708076000213623,1,
R2380,cenarías,338,word,1,False,3,1.5719621181488037,1,
R2380,frindería,339,word,1,True,3,1.0299980640411377,2,
R2380,sumarían,340,word,1,False,3,0.8079588413238525,1,
R2380,lorgarían,341,word,2,False,3,1.5458409786224365,2,
R2380,coseremos,342,word,1,False,3,1.4759259223937988,1,
R2380,besaría,343,word,2,True,3,1.332056999206543,1,
R2380,vultabas,344,word,1,True,3,0.9708409309387207,2,
R2380,imirán,345,word,2,False,3,0.9441440105438232,2,
R2380,luntían,346,word,1,True,3,0.9599490165710449,2,
R2380,comerán,347,word,2,True,3,1.3329288959503174,1,
R2380,corríamos,348,word,1,False,3,2.0608980655670166,1,
R2380,bruvirías,349,word,1,True,3,1.303976058959961,2,
R2380,lorgabas,350,word,2,False,3,0.9958581924438477,2,
R2380,besaríamos,351,word,2,True,3,1.529874324798584,1,
R2380,besarás,352,word,2,True,3,1.7681071758270264,1,
R2380,formaban,353,word,2,True,3,1.4190690517425537,1,
R2380,retará,354,word,1,False,3,2.196033000946045,1,
R2380,rimaríamos,355,word,1,False,3,1.2588748931884766,1,
R2380,gacharán,356,word,2,False,3,1.4859399795532227,2,
R2380,cuarriré,357,word,1,True,3,1.022878885269165,2,
R2380,temerían,358,word,2,True,3,1.2448570728302002,1,
R2380,fundías,359,word,1,False,3,0.911003828048706,1,
R2380,barríamos,360,word,1,False,3,1.4599380493164062,1,
R2380,mardiríamos,361,word,1,True,3,1.5340430736541748,2,
R2380,eplarían,362,word,1,True,3,1.6750550270080566,2,
R2380,faltábamos,363,word,2,True,3,1.4769010543823242,1,
R2380,morderías,364,word,1,False,3,1.3550689220428467,1,
R2380,pavaríamos,365,word,1,True,3,0.7510879039764404,2,
R2380,anríamos,366,word,2,False,3,2.1018660068511963,2,
R2380,quijarían,367,word,2,False,3,2.207441806793213,2,
R2380,comerá,368,word,2,True,3,1.2520031929016113,1,
R2380,temía,369,word,2,True,3,0.9510049819946289,1,
R2380,rotabas,370,word,1,False,3,2.018972873687744,1,
R2380,mertaba,371,word,1,True,3,0.9300830364227295,2,
R2380,casaban,372,word,1,False,3,1.927995204925537,1,
R2380,cuarrirían,373,word,1,True,3,2.1821062564849854,2,
R2380,luntías,374,word,1,True,3,0.9728682041168213,2,
R2380,bigaremos,375,word,1,True,3,0.855844259262085,2,
R2380,ceflían,376,word,1,True,3,1.217524766921997,2,
R2380,honderán,377,word,1,True,3,1.3148672580718994,2,
R2380,bimarían,378,word,1,True,3,1.0257630348205566,2,
R2380,porería,379,word,1,True,3,1.2989771366119385,2,
R2380,metías,380,word,2,True,3,0.9539220333099365,1,
R2380,correrán,381,word,2,True,3,1.4409971237182617,1,
R2380,moncerían,382,word,1,True,3,1.8629131317138672,2,
R2380,bruvirá,383,word,1,True,3,0.7658469676971436,2,
R2380,faltabas,384,word,2,True,3,1.2217822074890137,1,
R2380,casarías,385,word,1,False,3,1.1511852741241455,1,
R2380,imíamos,386,word,1,True,3,1.4621469974517822,2,
R2380,cetarías,387,word,1,True,3,1.3029649257659912,2,
R2380,focabas,388,word,2,False,3,1.2400619983673096,2,
R2380,fundiríamos,389,word,1,False,3,0.9849021434783936,1,
R2380,cefleré,390,word,1,True,3,1.1332240104675293,2,
R2380,hondíamos,391,word,1,True,3,0.6598930358886719,2,
R2380,partirán,392,word,1,False,3,1.2487802505493164,1,
R2380,anrerías,393,word,1,True,3,1.0735669136047363,2,
R2380,cetaríamos,394,word,1,True,3,0.850092887878418,2,
R2380,hondías,395,word,1,True,3,1.8388171195983887,2,
R2380,narraremos,396,word,1,False,3,1.0830063819885254,1,
R2380,gruñirá,397,word,1,False,3,1.30185866355896,1,
R2380,focaban,398,word,2,False,3,0.963019609451294,2,
R2380,rotaríamos,399,word,2,True,3,1.2650821208953857,1,
R2380,runarías,400,word,1,True,3,0.8918380737304688,2,
R2380,correrían,401,word,2,True,3,1.0348858833312988,1,
R2380,rayarán,402,word,2,True,3,1.5820941925048828,1,
R2380,cortaban,403,word,1,False,3,0.5077290534973145,1,
R2380,temeremos,404,word,2,True,3,1.365070104598999,1,
R2380,fundían,405,word,2,True,3,1.2838547229766846,1,
R2380,meteremos,406,word,1,False,3,0.9028530120849609,1,
R2380,rimarás,407,word,1,False,3,1.4360389709472656,1,
R2380,lacherás,408,word,1,True,3,0.9899041652679443,2,
R2380,tujirían,409,word,1,True,3,0.8308291435241699,2,
R2380,besaba,410,word,2,True,3,1.0609679222106934,1,
R2380,quemaría,411,word,2,True,3,1.009955883026123,1,
R2380,frinderías,412,word,1,True,3,1.2148950099945068,2,
R2380,galará,413,word,1,True,3,0.7242758274078369,2,
R2380,fanería,414,word,1,True,3,1.4949350357055664,2,
R2380,porerás,415,word,1,True,3,1.8379600048065186,2,
R2380,lailabas,416,word,1,True,3,0.33397912979125977,2,
R2380,sauaban,417,word,1,True,3,1.048975944519043,2,
R2380,besábamos,418,word,2,True,3,1.6200859546661377,1,
R2380,ceterían,419,word,1,True,3,1.3090689182281494,2,
R2380,nadarían,420,word,2,True,3,1.2160890102386475,1,
R2380,lamías,421,word,1,False,3,1.4338626861572266,1,
R2380,tujirá,422,word,1,True,3,0.7008481025695801,2,
R2380,cetábamos,423,word,1,True,3,1.2909610271453857,2,
R2380,ceterá,424,word,1,True,3,1.3562171459197998,2,
R2380,uniría,425,word,1,False,3,1.9489221572875977,1,
R2380,subirían,426,word,1,False,3,1.9977569580078125,1,
R2380,eplarías,427,word,1,True,3,1.1299750804901123,2,
R2380,cenarían,428,word,2,True,3,1.7739100456237793,1,
R2380,comías,429,word,2,True,3,0.9820201396942139,1,
R2380,nadaría,430,word,2,True,3,1.0458829402923584,1,
R2380,mardirá,431,word,1,True,3,1.9593191146850586,2,
R2380,faníamos,432,word,1,True,3,1.6148920059204102,2,
R2380,unían,433,word,2,True,3,0.8719291687011719,1,
R2380,bruvirían,434,word,1,True,3,0.8459000587463379,2,
R2380,jurabas,435,word,2,True,3,1.2760131359100342,1,
R2380,rotábamos,436,word,1,False,3,1.643967866897583,1,
R2380,galaré,437,word,1,True,3,0.7648110389709473,2,
R2380,rondaré,438,word,1,False,3,1.5060670375823975,1,
R2380,lailaremos,439,word,1,True,3,1.3319909572601318,2,
R2380,unirá,440,word,1,False,3,1.7041759490966797,1,
R2380,sumaría,441,word,1,False,3,1.117908000946045,1,
R2380,sesía,442,word,1,True,3,1.4589722156524658,2,
R2380,retaré,443,word,1,False,3,1.5073189735412598,1,
R2380,subiríamos,444,word,1,False,3,1.2973120212554932,1,
R2380,frinderás,445,word,1,True,3,0.8130717277526855,2,
R2380,retarían,446,word,2,True,3,1.2659919261932373,1,
R2380,zusarán,447,word,1,True,3,1.4011058807373047,2,
R2380,bruvirás,448,word,1,True,3,0.7397570610046387,2,
R2380,cetarás,449,word,1,True,3,1.036952018737793,2,
R2380,subías,450,word,1,False,3,1.166923999786377,1,
R2380,rondaban,451,word,2,True,3,1.2010118961334229,1,
R2380,pactaban,452,word,1,False,3,1.0210320949554443,1,
R2380,cuarriríamos,453,word,1,True,3,1.0543429851531982,2,
R2380,burraríamos,454,word,2,False,3,1.8175008296966553,2,
R2380,moncerás,455,word,1,True,3,0.7369561195373535,2,
R2380,rayaban,456,word,2,True,3,0.938887357711792,1,
R2380,frindías,457,word,1,True,3,0.7299478054046631,2,
R2380,fundirán,458,word,1,False,3,0.8629817962646484,1,
R2380,prendíamos,459,word,1,False,3,1.153869867324829,1,
R2380,fundía,460,word,2,True,3,0.9470570087432861,1,
R2380,quijaba,461,word,2,False,3,1.3420400619506836,2,
R2380,ciperemos,462,word,1,True,3,1.072281837463379,2,
R2380,somerá,463,word,1,True,3,1.1810369491577148,2,
R2380,correrías,464,word,1,False,3,1.052903175354004,1,
R2380,mardirían,465,word,1,True,3,1.3399181365966797,2,
R2380,bimarías,466,word,1,True,3,0.879019021987915,2,
R2380,cumplían,467,word,2,True,3,1.0882182121276855,1,
R2380,cetaba,468,word,1,True,3,0.9139220714569092,2,
R2380,cubriré,469,word,1,False,4,1.3029429912567139,1,
R2380,faltaremos,470,word,2,True,4,1.0842738151550293,1,
R2380,cetaría,471,word,1,True,4,1.0570459365844727,2,
R2380,rondaba,472,word,2,True,4,1.256852388381958,1,
R2380,venderemos,473,word,2,True,4,1.5853350162506104,1,
R2380,fundiré,474,word,2,True,4,1.1778888702392578,1,
R2380,obrarías,475,word,1,False,4,1.7230360507965088,1,
R2380,sumaremos,476,word,1,False,4,1.7846388816833496,1,
R2380,rondaríamos,477,word,2,True,4,1.5089919567108154,1,
R2380,meterían,478,word,1,False,4,0.7998931407928467,1,
R2380,nadaré,479,word,2,True,4,0.9339349269866943,1,
R2380,lailaba,480,word,1,True,4,0.8720099925994873,2,
R2380,tuplías,481,word,1,True,4,0.7737998962402344,2,
R2380,lucharías,482,word,1,False,4,1.011094093322754,1,
R2380,sindaría,483,word,1,True,4,0.8691132068634033,2,
R2380,moncerías,484,word,1,True,4,1.1389257907867432,2,
R2380,chanraré,485,word,1,True,4,0.9220049381256104,2,
R2380,mertará,486,word,1,True,4,2.0199270248413086,2,
R2380,pavarás,487,word,1,True,4,0.7949240207672119,2,
R2380,sesíamos,488,word,1,True,4,1.2883520126342773,2,
R2380,fundiremos,489,word,2,True,4,1.4081101417541504,1,
R2380,bruvía,490,word,1,True,4,0.8210330009460449,2,
R2380,besaremos,491,word,2,True,4,0.7718870639801025,1,
R2380,gruñía,492,word,1,False,4,0.9433081150054932,1,
R2380,pavará,493,word,1,True,4,1.1330721378326416,2,
R2380,lucharé,494,word,1,False,4,0.8139510154724121,1,
R2380,bruviríamos,495,word,1,True,4,0.6548399925231934,2,
R2380,barrería,496,word,1,False,4,1.298044204711914,1,
R2380,cichiremos,497,word,1,True,4,1.0098869800567627,2,
R2380,rotarán,498,word,1,False,4,1.5844378471374512,1,
R2380,ceflerás,499,word,1,True,4,1.106436014175415,2,
R2380,nadaríamos,500,word,2,True,4,1.6098949909210205,1,
R2380,ciperían,501,word,1,True,4,0.9430372714996338,2,
R2380,barrerías,502,word,1,False,4,1.5010769367218018,1,
R2380,rotaremos,503,word,2,True,4,2.047117233276367,1,
R2380,runaba,504,word,2,False,4,1.8709309101104736,2,
R2380,poreríamos,505,word,1,True,4,1.3061301708221436,2,
R2380,galarás,506,word,1,True,4,1.917017936706543,2,
R2380,mardirán,507,word,1,True,4,2.0620129108428955,2,
R2380,partías,508,word,1,False,4,0.8109130859375,1,
R2380,cenaría,509,word,2,True,4,1.9431471824645996,1,
R2380,cisarías,510,word,1,True,4,1.321903944015503,2,
R2380,bailarían,511,word,2,True,4,1.647123098373413,1,
R2380,comeremos,512,word,2,True,4,1.3398628234863281,1,
R2380,eplábamos,513,word,1,True,4,1.2741470336914062,2,
R2380,juraba,514,word,2,True,4,1.0628719329833984,1,
R2380,meteré,515,word,2,True,4,1.5389928817749023,1,
R2380,bruviré,516,word,1,True,4,1.311797857284546,2,
R2380,cuarriría,517,word,1,True,4,1.693073034286499,2,
R2380,bruvían,518,word,1,True,4,0.7979047298431396,2,
R2380,vultarán,519,word,1,True,4,1.046915054321289,2,
R2380,narrabas,520,word,1,False,4,1.4367470741271973,1,
R2380,bailaré,521,word,2,True,4,1.164933681488037,1,
R2380,rondará,522,word,1,False,4,1.4560730457305908,1,
R2380,cederán,523,word,1,False,4,1.0430231094360352,1,
R2380,retaba,524,word,1,False,4,1.664900779724121,1,
R2380,cosían,525,word,1,False,4,1.352902889251709,1,
R2380,ciperán,526,word,1,True,4,1.0289409160614014,2,
R2380,lailarán,527,word,1,True,4,0.9428391456604004,2,
R2380,cortábamos,528,word,1,False,4,0.8789069652557373,1,
R2380,pactarían,529,word,1,False,4,1.345916986465454,1,
R2380,tujíamos,530,word,1,True,4,0.930851936340332,2,
R2380,rondarás,531,word,1,False,4,1.8520092964172363,1,
R2380,moncían,532,word,1,True,4,1.128119945526123,2,
R2380,somerán,533,word,1,True,4,0.8888978958129883,2,
R2380,cederá,534,word,2,True,4,2.2049829959869385,1,
R2380,comeríamos,535,word,2,True,4,1.3761239051818848,1,
R2380,rotaré,536,word,1,False,4,1.3878369331359863,1,
R2380,sumaba,537,word,1,False,4,0.7178122997283936,1,
R2380,nadarás,538,word,2,True,4,1.91190767288208,1,
R2380,honderíamos,539,word,1,True,4,2.069709062576294,2,
R2380,tosías,540,word,1,False,4,1.1708920001983643,1,
R2380,faneremos,541,word,1,True,4,1.0910189151763916,2,
R2380,bimaban,542,word,1,True,4,1.1550006866455078,2,
R2380,focaríamos,543,word,1,True,4,0.9809479713439941,2,
R2380,ciperé,544,word,1,True,4,1.1970150470733643,2,
R2380,cederé,545,word,2,True,4,1.1109700202941895,1,
R2380,correríamos,546,word,1,False,4,1.5970301628112793,1,
R2380,rayaría,547,word,2,True,4,1.5363450050354004,1,
R2380,cipían,548,word,1,True,4,1.0529649257659912,2,
R2380,rayaríamos,549,word,2,True,4,1.3230741024017334,1,
R2380,vultaríamos,550,word,1,True,4,1.3530397415161133,2,
R2380,lucharía,551,word,1,False,4,1.1489429473876953,1,
R2380,riteríamos,552,word,2,False,4,1.2939610481262207,2,
R2380,juraría,553,word,1,False,4,0.06588411331176758,1,
R2380,ceflerán,554,word,1,True,4,1.153993844985962,2,
R2380,cuarrirías,555,word,1,True,4,1.0150809288024902,2,
R2380,pactarás,556,word,1,False,4,0.21767973899841309,1,
R2380,prenderíamos,557,word,1,False,4,0.6500430107116699,1,
R2380,zusabas,558,word,2,False,4,0.5329420566558838,2,
R2380,cubrirán,559,word,1,False,4,0.30297064781188965,1,
R2380,jurarás,560,word,1,False,4,0.5948150157928467,1,
R2380,formaremos,561,word,1,False,4,0.45008206367492676,1,
R2380,maftarán,562,word,1,True,4,0.37929797172546387,2,
R2380,fanían,563,word,2,False,4,0.600797176361084,2,
R2380,quemaremos,564,word,1,False,4,0.1202249526977539,1,
R2380,juraremos,565,word,2,True,4,0.8842370510101318,1,
R2380,tuplirías,566,word,1,True,4,0.8195672035217285,2,
R2380,comerías,567,word,2,True,4,1.000218152999878,1,
R2380,formarían,568,word,2,True,4,1.2212421894073486,1,
R2380,lailaré,569,word,1,True,4,0.9461970329284668,2,
R2380,ciperá,570,word,2,False,4,1.050205945968628,2,
R2380,tujiría,571,word,1,True,4,0.7891161441802979,2,
R2380,cumplirás,572,word,2,True,4,1.5682308673858643,1,
R2380,venderían,573,word,2,True,4,1.11423921585083,1,
R2380,retabas,574,word,1,False,4,1.6508350372314453,1,
R2380,luntirían,575,word,1,True,4,0.8062770366668701,2,
R2380,cetería,576,word,1,True,4,0.9134790897369385,2,
R2380,runarás,577,word,1,True,4,1.2486321926116943,2,
R2380,bigaba,578,word,1,True,4,0.7300915718078613,2,
R2380,cortaría,579,word,2,True,4,1.7586400508880615,1,
R2380,cortarán,580,word,2,True,4,1.2912147045135498,1,
R2380,narraba,581,word,1,False,4,1.5632798671722412,1,
R2380,cetíamos,582,word,1,True,4,1.1686451435089111,2,
R2380,cetarán,583,word,1,True,4,1.064852237701416,2,
R2380,subíamos,584,word,1,False,4,0.7318768501281738,1,
R2380,bailará,585,word,2,True,4,0.9990510940551758,1,
R2380,lorgaría,586,word,2,False,4,1.8178741931915283,2,
R2380,vultaremos,587,word,1,True,4,0.7860140800476074,2,
R2380,lamerá,588,word,1,False,4,0.08605074882507324,1,
R2380,eplaba,589,word,1,True,4,1.0260541439056396,2,
R2380,pavábamos,590,word,1,True,4,0.9920120239257812,2,
R2380,juraban,591,word,2,True,4,0.9478151798248291,1,
R2380,rimaría,592,word,1,False,4,0.8129160404205322,1,
R2380,casaremos,593,word,2,True,4,1.6768949031829834,1,
R2380,arderíamos,594,word,1,False,4,1.8890697956085205,1,
R2380,nadaremos,595,word,2,True,4,1.0648910999298096,1,
R2380,unirán,596,word,1,False,4,1.8454349040985107,1,
R2380,meterán,597,word,2,True,4,1.7268879413604736,1,
R2380,bigaríamos,598,word,1,True,4,1.3949079513549805,2,
R2380,sauarían,599,word,1,True,4,1.4229071140289307,2,
R2380,imirían,600,word,1,True,4,1.9890718460083008,2,
R2380,quijabas,601,word,1,True,4,2.3476319313049316,2,
R2380,morderás,602,word,2,True,4,1.9721360206604004,1,
R2380,gruñían,603,word,1,False,4,1.188066005706787,1,
R2380,tuplirá,604,word,1,True,4,1.1820509433746338,2,
R2380,cichiría,605,word,1,True,4,1.1849370002746582,2,
R2380,metía,606,word,2,True,4,1.55617094039917,1,
R2380,gruñíamos,607,word,1,False,4,0.928170919418335,1,
R2380,sumarás,608,word,2,True,4,1.5619351863861084,1,
R2380,rimarían,609,word,1,False,4,0.8728859424591064,1,
R2380,meterías,610,word,2,True,4,1.405829906463623,1,
R2380,barrerá,611,word,1,False,4,1.2711420059204102,1,
R2380,sumaré,612,word,1,False,4,1.275590181350708,1,
R2380,sindarían,613,word,1,True,4,1.0598688125610352,2,
R2380,runaremos,614,word,1,True,4,0.8170700073242188,2,
R2380,anrerás,615,word,1,True,4,1.30660080909729,2,
R2380,fundirá,616,word,2,True,4,2.0469439029693604,1,
R2380,quijaremos,617,word,1,True,4,1.560925006866455,2,
R2380,zusaremos,618,word,1,True,4,1.1168859004974365,2,
R2380,cisabas,619,word,1,True,4,1.4539997577667236,2,
R2380,sindaban,620,word,1,True,4,0.4240541458129883,2,
R2380,honderé,621,word,1,True,4,1.5268726348876953,2,
R2380,fundíamos,622,word,1,False,4,1.1016170978546143,1,
R2380,correrás,623,word,1,False,4,2.588974714279175,1,
R2380,cedería,624,word,2,True,4,2.0509769916534424,1,
R2380,pactaba,625,word,2,True,5,1.3588693141937256,1,
R2380,uniré,626,word,2,True,5,1.078050136566162,1,
R2380,cetaré,627,word,1,True,5,1.213984727859497,2,
R2380,ritería,628,word,2,False,5,1.4540441036224365,2,
R2380,lorgaríamos,629,word,2,False,5,1.5198609828948975,2,
R2380,runará,630,word,1,True,5,1.0642352104187012,2,
R2380,ceflía,631,word,1,True,5,1.0029280185699463,2,
R2380,riteremos,632,word,2,False,5,1.1819391250610352,2,
R2380,venderán,633,word,2,True,5,0.7898333072662354,1,
R2380,gachábamos,634,word,1,True,5,1.4578368663787842,2,
R2380,toserás,635,word,1,False,5,1.6299540996551514,1,
R2380,cubríamos,636,word,1,False,5,1.5089411735534668,1,
R2380,lamerían,637,word,1,False,5,1.0078511238098145,1,
R2380,vultaré,638,word,1,True,5,0.15284991264343262,2,
R2380,sauarías,639,word,1,True,5,0.915989875793457,2,
R2380,cetará,640,word,1,True,5,0.9251828193664551,2,
R2380,sindaremos,641,word,1,True,5,0.920053243637085,2,
R2380,bailarán,642,word,2,True,5,1.281001329421997,1,
R2380,gruñirían,643,word,1,False,5,1.141016960144043,1,
R2380,mertaré,644,word,1,True,5,1.6249349117279053,2,
R2380,narrarías,645,word,1,False,5,1.2578742504119873,1,
R2380,quijábamos,646,word,1,True,5,1.4440760612487793,2,
R2380,ardía,647,word,1,False,5,1.5939929485321045,1,
R2380,casarían,648,word,2,True,5,1.4430372714996338,1,
R2380,bigarías,649,word,1,True,5,0.8670949935913086,2,
R2380,cichirían,650,word,1,True,5,0.8371310234069824,2,
R2380,nadaban,651,word,1,False,5,0.425152063369751,1,
R2380,sesían,652,word,1,True,5,0.9310710430145264,2,
R2380,fundirías,653,word,1,False,5,2.089120864868164,1,
R2380,faltaría,654,word,2,True,5,1.5549252033233643,1,
R2380,bailarás,655,word,2,True,5,1.957068920135498,1,
R2380,subiría,656,word,1,False,5,0.7171547412872314,1,
R2380,rimaban,657,word,1,False,5,0.7928462028503418,1,
R2380,formaré,658,word,1,False,5,1.9679780006408691,1,
R2380,anrerá,659,word,1,True,5,0.9958560466766357,2,
R2380,focarían,660,word,1,True,5,2.3888797760009766,2,
R2380,cortaré,661,word,1,False,5,0.9129748344421387,1,
R2380,gachabas,662,word,1,True,5,0.7910892963409424,2,
R2380,retarás,663,word,1,False,5,1.1754639148712158,1,
R2380,chanraríamos,664,word,1,True,5,1.525313138961792,2,
R2380,ceflerá,665,word,1,True,5,0.7488408088684082,2,
R2380,cortaba,666,word,2,True,5,1.1487431526184082,1,
R2380,rayará,667,word,2,True,5,0.824862003326416,1,
R2380,vultábamos,668,word,1,True,5,0.7819950580596924,2,
R2380,maftaba,669,word,1,True,5,1.4888181686401367,2,
R2380,lucharemos,670,word,1,False,5,0.027904987335205078,1,
R2380,vendía,671,word,2,True,5,0.7540829181671143,1,
R2380,lorgábamos,672,word,2,False,5,1.2760088443756104,2,
R2380,juraré,673,word,1,False,5,2.608376979827881,1,
R2380,rayaremos,674,word,2,True,5,1.0289068222045898,1,
R2380,corrían,675,word,1,False,5,1.812101125717163,1,
R2380,cubriremos,676,word,1,False,5,0.04701423645019531,1,
R2380,vultaba,677,word,2,False,5,1.738055944442749,2,
R2380,partirías,678,word,2,True,5,1.3339340686798096,1,
R2380,rotará,679,word,1,False,5,1.4949688911437988,1,
R2380,seserán,680,word,1,True,5,1.4031100273132324,2,
R2380,lachíamos,681,word,1,True,5,1.0098633766174316,2,
R2380,pavaba,682,word,1,True,5,1.1509859561920166,2,
R2380,lailaríamos,683,word,1,True,5,0.9510681629180908,2,
R2380,retaría,684,word,2,True,5,1.3689959049224854,1,
R2380,bimarás,685,word,1,True,5,0.7730848789215088,2,
R2380,cosería,686,word,1,False,5,1.3478038311004639,1,
R2380,barrías,687,word,1,False,5,1.475938081741333,1,
R2380,ceterías,688,word,1,True,5,1.2779510021209717,2,
R2380,cichiré,689,word,1,True,5,0.9848902225494385,2,
R2380,cichirías,690,word,1,True,5,0.9020967483520508,2,
R2380,arderían,691,word,1,False,5,1.2420239448547363,1,
R2380,quijarás,692,word,2,False,5,2.667922019958496,2,
R2380,faltaré,693,word,2,True,5,2.119990110397339,1,
R2380,maftaríamos,694,word,1,True,5,1.5649349689483643,2,
R2380,riteré,695,word,2,False,5,1.1325328350067139,2,
R2380,chanraremos,696,word,1,True,5,1.8121390342712402,2,
R2380,charlarás,697,word,2,True,5,1.2894580364227295,1,
R2380,mordería,698,word,1,False,5,0.874992847442627,1,
R2380,partíamos,699,word,2,True,5,0.9870259761810303,1,
R2380,pactarán,700,word,1,False,5,2.0230958461761475,1,
R2380,ceflería,701,word,1,True,5,0.7420060634613037,2,
R2380,quijarán,702,word,1,True,5,1.4259872436523438,2,
R2380,toseríamos,703,word,1,False,5,1.5271248817443848,1,
R2380,hondía,704,word,1,True,5,2.739703893661499,2,
R2380,cuarrirán,705,word,1,True,5,1.647650957107544,2,
R2380,lorgaré,706,word,2,False,5,1.2056009769439697,2,
R2380,lucharán,707,word,2,True,5,1.6300773620605469,1,
R2380,ceteré,708,word,1,True,5,1.1799602508544922,2,
R2380,sumará,709,word,1,False,5,0.7700059413909912,1,
R2380,prenderemos,710,word,2,True,5,1.1572411060333252,1,
R2380,eplarán,711,word,1,True,5,2.3058528900146484,2,
R2380,narrarás,712,word,1,False,5,1.7068748474121094,1,
R2380,sumaríamos,713,word,1,False,5,0.9810810089111328,1,
R2380,burraban,714,word,1,True,5,2.504000186920166,2,
R2380,lailarían,715,word,1,True,5,0.8348760604858398,2,
R2380,mordíamos,716,word,2,True,5,0.9519321918487549,1,
R2380,maftaría,717,word,1,True,5,1.4010732173919678,2,
R2380,fanerán,718,word,1,True,5,1.9510703086853027,2,
R2380,barreríamos,719,word,2,True,5,1.270616054534912,1,
R2380,unirías,720,word,1,False,5,1.6294751167297363,1,
R2380,focarás,721,word,2,False,5,1.0588641166687012,2,
R2380,coserán,722,word,1,False,5,1.1910111904144287,1,
R2380,ritías,723,word,1,True,5,0.7209939956665039,2,
R2380,gacharíamos,724,word,1,True,5,1.3658537864685059,2,
R2380,bimarán,725,word,1,True,5,1.1460859775543213,2,
R2380,burrará,726,word,1,True,5,1.2589900493621826,2,
R2380,formará,727,word,1,False,5,1.875783920288086,1,
R2380,fanerá,728,word,1,True,5,1.205038070678711,2,
R2380,zusaban,729,word,1,True,5,0.9448750019073486,2,
R2380,burraremos,730,word,1,True,5,1.7591800689697266,2,
R2380,correrá,731,word,1,False,5,2.247904062271118,1,
R2380,luchábamos,732,word,1,False,5,0.997931957244873,1,
R2380,cefleremos,733,word,1,True,5,0.09497189521789551,2,
R2380,gachaba,734,word,1,True,5,1.1790869235992432,2,
R2380,lamíamos,735,word,1,False,5,1.5898528099060059,1,
R2380,ardíamos,736,word,1,False,5,2.110060930252075,1,
R2380,eplaban,737,word,1,True,5,0.6665959358215332,2,
R2380,bimará,738,word,1,True,5,1.3908450603485107,2,
R2380,rayaré,739,word,1,False,5,2.103916883468628,1,
R2380,quemarían,740,word,2,True,5,2.0412211418151855,1,
R2380,porías,741,word,1,True,5,1.1939940452575684,2,
R2380,cisaríamos,742,word,1,True,5,0.17188477516174316,2,
R2380,cuarrías,743,word,1,True,5,1.0100789070129395,2,
R2380,charlarán,744,word,1,False,5,0.9160518646240234,1,
R2380,ritía,745,word,1,True,5,1.3229517936706543,2,
R2380,poría,746,word,1,True,5,0.9897987842559814,2,
R2380,sindaríamos,747,word,1,True,5,1.8840892314910889,2,
R2380,faltarás,748,word,2,True,5,1.3369920253753662,1,
R2380,cumplíamos,749,word,2,True,5,1.787949800491333,1,
R2380,luntíamos,750,word,1,True,5,1.205152988433838,2,
R2380,nadabas,751,word,2,True,5,1.3969452381134033,1,
R2380,ritíamos,752,word,1,True,5,1.2689712047576904,2,
R2380,bigarán,753,word,1,True,5,0.6419830322265625,2,
R2380,pactaría,754,word,1,False,5,0.869154691696167,1,
R2380,gruñirán,755,word,1,False,5,0.8970198631286621,1,
R2380,quemarías,756,word,2,True,5,1.689910888671875,1,
R2380,sufriríamos,757,word,1,False,5,1.612947940826416,1,
R2380,tujían,758,word,1,True,5,0.7990362644195557,2,
R2380,lucharás,759,word,1,False,5,0.8640587329864502,1,
R2380,cipería,760,word,1,True,5,1.049036979675293,2,
R2380,cederías,761,word,1,False,5,1.1999788284301758,1,
R2380,galaría,762,word,1,True,5,1.9648017883300781,2,
R2380,sesería,763,word,1,True,5,1.0169169902801514,2,
R2380,galaríamos,764,word,1,True,5,0.9140782356262207,2,
R2380,fanerás,765,word,1,True,5,1.6909451484680176,2,
R2380,gacharás,766,word,1,True,5,2.4629602432250977,2,
R2380,anría,767,word,1,True,5,3.793999195098877,2,
R2380,faneré,768,word,1,True,5,0.8839731216430664,2,
R2380,cumplirá,769,word,2,True,5,1.111222743988037,1,
R2380,narrará,770,word,1,False,5,1.435086965560913,1,
R2380,narraríamos,771,word,1,False,5,0.06598019599914551,1,
R2380,rondarías,772,word,1,False,5,1.2699236869812012,1,
R2380,bimaría,773,word,1,True,5,0.9039411544799805,2,
R2380,correremos,774,word,1,False,5,0.3138878345489502,1,
R2380,prenderá,775,word,2,True,5,0.9180252552032471,1,
R2380,imiríamos,776,word,1,True,5,1.2918541431427002,2,
R2380,sufrirás,777,word,2,True,5,1.2399449348449707,1,
R2380,sumabas,778,word,1,False,5,0.9902520179748535,1,
R2380,someríamos,779,word,1,True,5,1.3999218940734863,2,
R2380,bigará,780,word,1,True,5,0.8479208946228027,2,
R2380,frinderíamos,781,word,1,True,6,2.22702693939209,2,
R2380,arderá,782,word,1,False,6,2.0520401000976562,1,
R2380,vultaban,783,word,2,False,6,1.274554967880249,2,
R2380,anrería,784,word,1,True,6,1.5849671363830566,2,
R2380,tosía,785,word,2,True,6,1.5262432098388672,1,
R2380,prendería,786,word,1,False,6,1.9868319034576416,1,
R2380,meterá,787,word,1,False,6,1.7320711612701416,1,
R2380,charlaríamos,788,word,2,True,6,2.0179059505462646,1,
R2380,cenaba,789,word,2,True,6,0.9290239810943604,1,
R2380,morderíamos,790,word,1,False,6,0.9599931240081787,1,
R2380,porerá,791,word,1,True,6,1.106806993484497,2,
R2380,coserían,792,word,1,False,6,1.500018835067749,1,
R2380,ceteremos,793,word,1,True,6,1.3847999572753906,2,
R2380,partirían,794,word,1,False,6,1.1940021514892578,1,
R2380,sauarán,795,word,1,True,6,1.0188312530517578,2,
R2380,rimabas,796,word,1,False,6,1.4172086715698242,1,
R2380,coserías,797,word,1,False,6,1.0210778713226318,1,
R2380,anrías,798,word,1,True,6,1.184628963470459,2,
R2380,tuplía,799,word,1,True,6,1.0030739307403564,2,
R2380,cuarriremos,800,word,1,True,6,1.402987003326416,2,
R2380,rondaría,801,word,2,True,6,1.9232509136199951,1,
R2380,charlarían,802,word,2,True,6,1.9323840141296387,1,
R2380,porerán,803,word,1,True,6,2.2539258003234863,2,
R2380,lacherían,804,word,1,True,6,1.5211420059204102,2,
R2380,honderá,805,word,1,True,6,1.5670337677001953,2,
R2380,quijará,806,word,1,True,6,1.0819289684295654,2,
R2380,barrerás,807,word,2,True,6,2.1041347980499268,1,
R2380,seserás,808,word,1,True,6,1.1820642948150635,2,
R2380,maftarás,809,word,1,True,6,0.6177949905395508,2,
R2380,mertábamos,810,word,1,True,6,1.2298240661621094,2,
R2380,lacheremos,811,word,1,True,6,0.8809750080108643,2,
R2380,seserían,812,word,1,True,6,1.3719429969787598,2,
R2380,cefleríamos,813,word,1,True,6,1.4870960712432861,2,
R2380,ardería,814,word,1,False,6,0.9350969791412354,1,
R2380,gruñiríamos,815,word,1,False,6,0.953125,1,
R2380,faltaban,816,word,2,True,6,1.0218822956085205,1,
R2380,gacharías,817,word,2,False,6,2.187954902648926,2,
R2380,tupliría,818,word,1,True,6,0.8531458377838135,2,
R2380,obraría,819,word,1,False,6,1.2588820457458496,1,
R2380,luntirías,820,word,1,True,6,1.23685884475708,2,
R2380,maftaré,821,word,1,True,6,0.9360582828521729,2,
R2380,cubrirás,822,word,1,False,6,1.662938117980957,1,
R2380,cedía,823,word,2,True,6,1.4120728969573975,1,
R2380,sindarán,824,word,1,True,6,1.4488930702209473,2,
R2380,quemaríamos,825,word,1,False,6,1.4281792640686035,1,
R2380,comerás,826,word,2,True,6,1.5980808734893799,1,
R2380,juraríamos,827,word,1,False,6,1.4999239444732666,1,
R2380,anreremos,828,word,2,False,6,1.9645509719848633,2,
R2380,anreríamos,829,word,1,True,6,1.358030080795288,2,
R2380,obrabas,830,word,2,True,6,1.7170071601867676,1,
R2380,faltarían,831,word,1,False,6,1.9176621437072754,1,
R2380,burrábamos,832,word,1,True,6,2.0605010986328125,2,
R2380,obraremos,833,word,1,False,6,1.541126012802124,1,
R2380,pavarías,834,word,1,True,6,0.6869943141937256,2,
R2380,cetían,835,word,1,True,6,1.275008201599121,2,
R2380,zusaba,836,word,1,True,6,0.9820008277893066,2,
R2380,rotarás,837,word,1,False,6,1.445085048675537,1,
R2380,cipías,838,word,2,False,6,1.8846399784088135,2,
R2380,tuplirán,839,word,1,True,6,0.8290040493011475,2,
R2380,maftará,840,word,1,True,6,0.8461909294128418,2,
R2380,luchaba,841,word,2,True,6,1.7631118297576904,1,
R2380,focaremos,842,word,2,False,6,1.1081631183624268,2,
R2380,lailaban,843,word,1,True,6,0.9111487865447998,2,
R2380,charlaba,844,word,2,True,6,1.0720880031585693,1,
R2380,toseré,845,word,1,False,6,1.514868974685669,1,
R2380,cortarás,846,word,2,True,6,1.6410841941833496,1,
R2380,anrerían,847,word,1,True,6,1.386080026626587,2,
R2380,metíamos,848,word,1,False,6,2.8743696212768555,1,
R2380,chanrarán,849,word,1,True,6,0.898078203201294,2,
R2380,moncía,850,word,1,True,6,0.8760907649993896,2,
R2380,ceterán,851,word,1,True,6,1.1401259899139404,2,
R2380,vultarían,852,word,2,False,6,1.7499639987945557,2,
R2380,hondían,853,word,1,True,6,1.999683141708374,2,
R2380,faltaríamos,854,word,2,True,6,1.5530550479888916,1,
R2380,cenaré,855,word,2,True,6,0.8800210952758789,1,
R2380,luchabas,856,word,1,False,6,2.34415602684021,1,
R2380,cubría,857,word,2,True,6,1.6071863174438477,1,
R2380,nadarías,858,word,2,True,6,2.188166856765747,1,
R2380,cumplías,859,word,2,True,6,1.4119899272918701,1,
R2380,charlaría,860,word,2,True,6,1.1110920906066895,1,
R2380,cisaría,861,word,1,True,6,1.225862979888916,2,
R2380,cenará,862,word,1,False,6,1.4041240215301514,1,
R2380,subía,863,word,1,False,6,1.1232340335845947,1,
R2380,galaban,864,word,1,True,6,1.1561040878295898,2,
R2380,besarían,865,word,2,True,6,1.2841570377349854,1,
R2380,temían,866,word,2,True,6,1.4493026733398438,1,
R2380,besarías,867,word,2,True,6,1.543105125427246,1,
R2380,sindarás,868,word,1,True,6,1.0899388790130615,2,
R2380,cedías,869,word,2,True,6,1.3721718788146973,1,
R2380,morderé,870,word,2,True,6,0.9879186153411865,1,
R2380,vendería,871,word,2,True,6,1.4117059707641602,1,
R2380,prenderás,872,word,1,False,6,1.7053241729736328,1,
R2380,rondábamos,873,word,1,False,6,1.6373398303985596,1,
R2380,cumpliríamos,874,word,2,True,6,1.3860199451446533,1,
R2380,monceríamos,875,word,1,True,6,1.2370071411132812,2,
R2380,pavabas,876,word,1,True,6,0.9241397380828857,2,
R2380,zusará,877,word,1,True,6,0.9210629463195801,2,
R2380,lucharíamos,878,word,1,False,6,0.8359308242797852,1,
R2380,cortarían,879,word,1,False,6,2.6188271045684814,1,
R2380,tujiremos,880,word,1,True,6,1.0109789371490479,2,
R2380,partía,881,word,1,False,6,0.9070160388946533,1,
R2380,luntirás,882,word,1,True,6,0.7611448764801025,2,
R2380,moncería,883,word,1,True,6,0.7169027328491211,2,
R2380,narrábamos,884,word,1,False,6,1.5542311668395996,1,
R2380,venderá,885,word,1,False,6,1.15885591506958,1,
R2380,cichíamos,886,word,1,True,6,0.9769127368927002,2,
R2380,riterías,887,word,1,True,6,0.7229549884796143,2,
R2380,subirá,888,word,1,False,6,0.6080801486968994,1,
R2380,fanerías,889,word,1,True,6,0.9946269989013672,2,
R2380,runaríamos,890,word,1,True,6,0.8239991664886475,2,
R2380,casaré,891,word,1,False,6,1.5011866092681885,1,
R2380,uniríamos,892,word,2,True,6,1.475851058959961,1,
R2380,chanrarías,893,word,1,True,6,0.557844877243042,2,
R2380,meteríamos,894,word,1,False,6,1.1119489669799805,1,
R2380,rimará,895,word,1,False,6,0.8859422206878662,1,
R2380,comeré,896,word,2,True,6,1.3161678314208984,1,
R2380,rondarán,897,word,1,False,6,0.7630808353424072,1,
R2380,lorgarías,898,word,1,True,6,1.1501219272613525,2,
R2380,imías,899,word,1,True,6,1.317673921585083,2,
R2380,retarías,900,word,1,False,6,0.882025957107544,1,
R2380,sauaremos,901,word,1,True,6,0.7954258918762207,2,
R2380,ardían,902,word,2,True,6,1.3369851112365723,1,
R2380,prenderían,903,word,1,False,6,1.5619089603424072,1,
R2380,tosían,904,word,2,True,6,1.430906057357788,1,
R2380,cumplirían,905,word,2,True,6,1.3081951141357422,1,
R2380,imía,906,word,2,False,6,1.2158279418945312,2,
R2380,cumplirías,907,word,2,True,6,1.7639648914337158,1,
R2380,pactaré,908,word,2,True,6,1.358461856842041,1,
R2380,meterás,909,word,2,True,6,2.279176950454712,1,
R2380,lameré,910,word,1,False,6,1.0900537967681885,1,
R2380,somerían,911,word,1,True,6,0.8671269416809082,2,
R2380,pavaría,912,word,1,True,6,0.7990016937255859,2,
R2380,quemaban,913,word,2,True,6,0.9712257385253906,1,
R2380,rotaría,914,word,1,False,6,1.3577699661254883,1,
R2380,bailabas,915,word,1,False,6,1.6563971042633057,1,
R2380,cederemos,916,word,2,True,6,1.470106840133667,1,
R2380,runabas,917,word,2,False,6,1.537268877029419,2,
R2380,barreré,918,word,2,True,6,1.2440850734710693,1,
R2380,barría,919,word,1,False,6,1.9052629470825195,1,
R2380,eplabas,920,word,1,True,6,1.8439300060272217,2,
R2380,runaré,921,word,1,True,6,0.5722041130065918,2,
R2380,correría,922,word,1,False,6,0.8513221740722656,1,
R2380,arderías,923,word,1,False,6,1.0281219482421875,1,
R2380,cubriríamos,924,word,1,False,6,2.4328739643096924,1,
R2380,cortabas,925,word,2,True,6,1.2221150398254395,1,
R2380,retaríamos,926,word,1,False,6,1.7322659492492676,1,
R2380,rayabas,927,word,2,True,6,0.8978922367095947,1,
R2380,narrarían,928,word,1,False,6,1.4429621696472168,1,
R2380,nadaba,929,word,1,False,6,1.2941677570343018,1,
R2380,monceré,930,word,1,True,6,1.1501939296722412,2,
R2380,luchará,931,word,1,False,6,1.0148961544036865,1,
R2380,lailábamos,932,word,1,True,6,0.855090856552124,2,
R2380,maftaban,933,word,1,True,6,1.1720569133758545,2,
R2380,burrabas,934,word,1,True,6,1.6939020156860352,2,
R2380,imirá,935,word,1,True,6,1.3389770984649658,2,
R2380,runarán,936,word,1,True,6,1.2109239101409912,2,
R2380,zusarás,937,word,1,True,7,0.8728907108306885,2,
R2380,unirían,938,word,2,True,7,1.0950520038604736,1,
R2380,lachías,939,word,1,True,7,1.0072391033172607,2,
R2380,arderán,940,word,2,True,7,1.2440431118011475,1,
R2380,prendía,941,word,2,True,7,0.7910358905792236,1,
R2380,somía,942,word,1,True,7,0.863090991973877,2,
R2380,nadarán,943,word,2,True,7,0.7829499244689941,1,
R2380,cipía,944,word,1,True,7,0.873920202255249,2,
R2380,frinderé,945,word,1,True,7,0.763059139251709,2,
R2380,pactarías,946,word,1,False,7,0.8251352310180664,1,
R2380,venderé,947,word,2,True,7,1.472869873046875,1,
R2380,cetía,948,word,2,False,7,1.2351720333099365,2,
R2380,comerían,949,word,2,True,7,0.8988170623779297,1,
R2380,jurábamos,950,word,2,True,7,1.0900931358337402,1,
R2380,rimarán,951,word,1,False,7,0.7501287460327148,1,
R2380,lailarías,952,word,1,True,7,1.3479528427124023,2,
R2380,rotaban,953,word,1,False,7,1.0799832344055176,1,
R2380,fanía,954,word,1,True,7,1.147157907485962,2,
R2380,subiré,955,word,1,False,7,1.2188608646392822,1,
R2380,partiremos,956,word,2,True,7,1.0558876991271973,1,
R2380,bruvías,957,word,1,True,7,1.3615736961364746,2,
R2380,cedíamos,958,word,1,False,7,2.2465858459472656,1,
R2380,obraba,959,word,1,False,7,1.2143669128417969,1,
R2380,vultarás,960,word,2,False,7,1.9640061855316162,2,
R2380,cederían,961,word,2,True,7,1.7700860500335693,1,
R2380,partiríamos,962,word,2,True,7,2.0325088500976562,1,
R2380,lorgaba,963,word,2,False,7,0.9190731048583984,2,
R2380,obraríamos,964,word,1,False,7,1.0070040225982666,1,
R2380,burraré,965,word,1,True,7,1.4048359394073486,2,
R2380,casará,966,word,2,True,7,1.4238228797912598,1,
R2380,porerías,967,word,1,True,7,1.3799819946289062,2,
R2380,gacharía,968,word,1,True,7,2.195046901702881,2,
R2380,rimaremos,969,word,1,False,7,0.9461448192596436,1,
R2380,mardías,970,word,1,True,7,1.1810979843139648,2,
R2380,morderían,971,word,1,False,7,0.811892032623291,1,
R2380,sufrían,972,word,2,True,7,1.025846004486084,1,
R2380,rondarían,973,word,1,False,7,1.3549540042877197,1,
R2380,subían,974,word,1,False,7,1.1581482887268066,1,
R2380,pavarán,975,word,1,True,7,2.3803999423980713,2,
R2380,cuarrían,976,word,1,True,7,1.6449251174926758,2,
R2380,metería,977,word,1,False,7,1.8171918392181396,1,
R2380,fanías,978,word,1,True,7,0.7688579559326172,2,
R2380,besarán,979,word,2,True,7,0.7829411029815674,1,
R2380,arderé,980,word,1,False,7,1.1761479377746582,1,
R2380,subiremos,981,word,1,False,7,1.605971097946167,1,
R2380,cenaríamos,982,word,2,True,7,0.9549660682678223,1,
R2380,besabas,983,word,2,True,7,1.3912053108215332,1,
R2380,partían,984,word,2,True,7,1.0760016441345215,1,
R2380,casaría,985,word,1,False,7,2.5132319927215576,1,
R2380,lachería,986,word,1,True,7,0.8659861087799072,2,
R2380,cichía,987,word,1,True,7,0.8548989295959473,2,
R2380,maftábamos,988,word,1,True,7,0.7269289493560791,2,
R2380,formaríamos,989,word,2,True,7,1.6458559036254883,1,
R2380,faltarán,990,word,2,True,7,0.9600419998168945,1,
R2380,luntiría,991,word,1,True,7,0.9230589866638184,2,
R2380,besará,992,word,2,True,7,0.753931999206543,1,
R2380,cetías,993,word,1,True,7,1.6700398921966553,2,
R2380,burrarías,994,word,1,True,7,1.160079002380371,2,
R2380,cuarría,995,word,1,True,7,0.9298951625823975,2,
R2380,quemábamos,996,word,2,True,7,1.8341491222381592,1,
R2380,vultaría,997,word,2,False,7,1.4020919799804688,2,
R2380,sauaría,998,word,1,True,7,0.8981320858001709,2,
R2380,rotarían,999,word,2,True,7,1.5912058353424072,1,
R2380,chanrarían,1000,word,1,True,7,0.9551711082458496,2,
R2380,cenabas,1001,word,2,True,7,0.9569001197814941,1,
R2380,zusarían,1002,word,1,True,7,1.1511578559875488,2,
R2380,sauabas,1003,word,1,True,7,1.160038948059082,2,
R2380,lamerán,1004,word,1,False,7,1.182142972946167,1,
R2380,mordían,1005,word,1,False,7,0.6359548568725586,1,
R2380,barrían,1006,word,1,False,7,1.294924020767212,1,
R2380,formarías,1007,word,1,False,7,1.8479759693145752,1,
R2380,monceremos,1008,word,1,True,7,1.3902390003204346,2,
R2380,cichían,1009,word,1,True,7,0.08506488800048828,2,
R2380,tujiré,1010,word,1,True,7,0.785078763961792,2,
R2380,cichirás,1011,word,1,True,7,0.8680129051208496,2,
R2380,gruñirías,1012,word,1,False,7,0.8559122085571289,1,
R2380,vendíamos,1013,word,2,True,7,0.970102071762085,1,
R2380,mertarán,1014,word,1,True,7,2.2741618156433105,2,
R2380,cisaban,1015,word,1,True,7,0.7339761257171631,2,
R2380,formabas,1016,word,2,True,7,1.1571459770202637,1,
R2380,tupliré,1017,word,2,False,7,0.9570450782775879,2,
R2380,venderás,1018,word,2,True,7,0.8289737701416016,1,
R2380,cuarrirás,1019,word,1,True,7,1.1610958576202393,2,
R2380,bigaré,1020,word,1,True,7,0.7769088745117188,2,
R2380,galábamos,1021,word,1,True,7,1.9179797172546387,2,
R2380,maftarían,1022,word,1,True,7,1.123952865600586,2,
R2380,cortará,1023,word,2,True,7,1.657102108001709,1,
R2380,cederíamos,1024,word,1,False,7,1.9119536876678467,1,
R2380,pactabas,1025,word,1,False,7,0.8409600257873535,1,
R2380,cichirán,1026,word,1,True,7,0.7970459461212158,2,
R2380,mertaría,1027,word,1,True,7,1.1650569438934326,2,
R2380,quemarás,1028,word,2,True,7,1.7641079425811768,1,
R2380,cuarríamos,1029,word,1,True,7,1.0020341873168945,2,
R2380,rondaremos,1030,word,1,False,7,1.3768079280853271,1,
R2380,ceflerías,1031,word,1,True,7,1.7439889907836914,2,
R2380,galarías,1032,word,2,False,7,1.241853952407837,2,
R2380,mardirías,1033,word,1,True,7,1.3199830055236816,2,
R2380,luntiríamos,1034,word,1,True,7,0.7770359516143799,2,
R2380,cubriría,1035,word,2,True,7,1.3700790405273438,1,
R2380,gruñías,1036,word,1,False,7,1.0291569232940674,1,
R2380,mardiré,1037,word,1,True,7,0.8289070129394531,2,
R2380,fundirás,1038,word,1,False,7,0.7400968074798584,1,
R2380,bailarías,1039,word,2,True,7,1.7981140613555908,1,
R2380,honderían,1040,word,1,True,7,1.337977647781372,2,
R2380,tujías,1041,word,1,True,7,0.7361161708831787,2,
R2380,quemaré,1042,word,2,True,7,0.8921041488647461,1,
R2380,charlaré,1043,word,2,True,7,1.6510071754455566,1,
R2380,runarían,1044,word,1,True,7,1.2279059886932373,2,
R2380,ciperás,1045,word,2,False,7,1.2249157428741455,2,
R2380,cetaban,1046,word,1,True,7,1.275062084197998,2,
R2380,maftabas,1047,word,1,True,7,1.064877986907959,2,
R2380,faltarías,1048,word,1,False,7,0.7939372062683105,1,
R2380,quemaba,1049,word,2,True,7,0.8380579948425293,1,
R2380,cortarías,1050,word,2,True,7,1.3780949115753174,1,
R2380,vultará,1051,word,2,False,7,1.1628730297088623,2,
R2380,casabas,1052,word,1,False,7,1.9169578552246094,1,
R2380,cetabas,1053,word,1,True,7,0.6550960540771484,2,
R2380,gacharían,1054,word,1,True,7,0.892493724822998,2,
R2380,faltaba,1055,word,2,True,7,1.105970859527588,1,
R2380,frindíamos,1056,word,1,True,7,1.5411667823791504,2,
R2380,retarán,1057,word,1,False,7,1.7810568809509277,1,
R2380,subirías,1058,word,1,False,7,1.0262351036071777,1,
R2380,anreré,1059,word,1,True,7,0.8574450016021729,2,
R2380,tupliríamos,1060,word,1,True,7,0.834108829498291,2,
R2380,barrerían,1061,word,2,True,7,2.1184098720550537,1,
R2380,casarán,1062,word,2,True,7,1.4439239501953125,1,
R2380,cisaremos,1063,word,1,True,7,1.29718017578125,2,
R2380,ceflías,1064,word,1,True,7,0.09980392456054688,2,
R2380,somían,1065,word,2,False,7,1.7081468105316162,2,
R2380,tuplirían,1066,word,1,True,7,0.6939399242401123,2,
R2380,tosíamos,1067,word,1,False,7,2.771235227584839,1,
R2380,honderemos,1068,word,1,True,7,1.8379812240600586,2,
R2380,rayaba,1069,word,2,True,7,0.8309822082519531,1,
R2380,toserá,1070,word,2,True,7,1.0591001510620117,1,
R2380,tujirás,1071,word,1,True,7,1.1049890518188477,2,
R2380,imiremos,1072,word,1,True,7,1.7640268802642822,2,
R2380,cosíamos,1073,word,1,False,7,1.6039328575134277,1,
R2380,honderías,1074,word,1,True,7,0.9748630523681641,2,
R2380,eplará,1075,word,1,True,7,2.4411239624023438,2,
R2380,nadábamos,1076,word,2,True,7,1.2799060344696045,1,
R2380,cenarás,1077,word,2,True,7,2.3120779991149902,1,
R2380,cubrirá,1078,word,2,True,7,1.7568857669830322,1,
R2380,sufrirías,1079,word,1,False,7,0.026100873947143555,1,
R2380,riterás,1080,word,2,False,7,1.2901551723480225,2,
R2380,lamía,1081,word,1,False,7,0.9680697917938232,1,
R2380,bimábamos,1082,word,1,True,7,1.0390079021453857,2,
R2380,chanrará,1083,word,1,True,7,1.2659718990325928,2,
R2380,comíamos,1084,word,1,False,7,1.3839738368988037,1,
R2380,lorgaremos,1085,word,2,False,7,3.5099527835845947,2,
R2380,mertabas,1086,word,1,True,7,1.882991075515747,2,
R2380,mardía,1087,word,1,True,7,0.8679790496826172,2,
R2380,cipíamos,1088,word,2,False,7,1.5510668754577637,2,
R2380,focábamos,1089,word,2,False,7,1.0331141948699951,2,
R2380,ciperíamos,1090,word,1,True,7,1.4557790756225586,2,
R2380,sufrirá,1091,word,2,True,7,1.4890921115875244,1,
R2380,lorgarán,1092,word,2,False,7,1.0630080699920654,2,
