participant,stimuli,trialNum,target_type,response,correct,block,reaction_time,trigger,
R2398,cubriría,1,word,2,True,1,1.452857255935669,1,
R2398,cenaré,2,word,2,True,1,1.3788721561431885,1,
R2398,cederíamos,3,word,2,True,1,1.1729190349578857,1,
R2398,vultábamos,4,word,1,True,1,1.378821849822998,2,
R2398,bailarás,5,word,2,True,1,1.06587815284729,1,
R2398,somerá,6,word,1,True,1,1.797922134399414,2,
R2398,bigaríamos,7,word,1,True,1,2.3979451656341553,2,
R2398,comerás,8,word,2,True,1,1.1639490127563477,1,
R2398,lamerían,9,word,2,True,1,1.1577720642089844,1,
R2398,seserá,10,word,1,True,1,2.914030075073242,2,
R2398,burrarías,11,word,1,True,1,1.7498400211334229,2,
R2398,cenábamos,12,word,2,True,1,0.8279821872711182,1,
R2398,charlaba,13,word,2,True,1,0.7279376983642578,1,
R2398,morderán,14,word,2,True,1,1.0617852210998535,1,
R2398,ciperían,15,word,1,True,1,0.7278001308441162,2,
R2398,uniremos,16,word,2,True,1,1.1699409484863281,1,
R2398,rayábamos,17,word,2,True,1,1.0028910636901855,1,
R2398,tujíamos,18,word,1,True,1,1.1398420333862305,2,
R2398,lailarás,19,word,1,True,1,1.1019887924194336,2,
R2398,bimaba,20,word,1,True,1,0.9297261238098145,2,
R2398,cuarriré,21,word,1,True,1,0.8158097267150879,2,
R2398,obraba,22,word,2,True,1,1.0815680027008057,1,
R2398,fundirás,23,word,2,True,1,1.3820180892944336,1,
R2398,rotaría,24,word,2,True,1,0.8158872127532959,1,
R2398,fanerías,25,word,1,True,1,1.5267999172210693,2,
R2398,moncerás,26,word,1,True,1,0.8299529552459717,2,
R2398,cubríamos,27,word,2,True,1,0.7957887649536133,1,
R2398,bimaremos,28,word,1,True,1,0.7609260082244873,2,
R2398,ceflíamos,29,word,1,True,1,1.009927749633789,2,
R2398,cenarás,30,word,2,True,1,0.9808828830718994,1,
R2398,porías,31,word,1,True,1,0.9298722743988037,2,
R2398,somerías,32,word,1,True,1,0.9541130065917969,2,
R2398,galabas,33,word,1,True,1,1.2499358654022217,2,
R2398,quijaban,34,word,2,False,1,1.5088870525360107,2,
R2398,tupliría,35,word,1,True,1,1.3730380535125732,2,
R2398,luntía,36,word,1,True,1,0.94405198097229,2,
R2398,quijaba,37,word,2,False,1,1.6639761924743652,2,
R2398,subirías,38,word,2,True,1,0.8727622032165527,1,
R2398,meterá,39,word,2,True,1,0.7000360488891602,1,
R2398,tupliríamos,40,word,1,True,1,0.954963207244873,2,
R2398,honderás,41,word,1,True,1,1.8315131664276123,2,
R2398,temían,42,word,2,True,1,0.792208194732666,1,
R2398,prendías,43,word,2,True,1,0.7868859767913818,1,
R2398,jurarían,44,word,2,True,1,0.9907991886138916,1,
R2398,meteríamos,45,word,2,True,1,0.7487890720367432,1,
R2398,anrerían,46,word,1,True,1,0.8107998371124268,2,
R2398,tuplía,47,word,1,True,1,0.8914361000061035,2,
R2398,cenarán,48,word,2,True,1,0.690946102142334,1,
R2398,mordías,49,word,2,True,1,0.7887308597564697,1,
R2398,cedías,50,word,2,True,1,1.0149900913238525,1,
R2398,burrarían,51,word,1,True,1,0.7759780883789062,2,
R2398,ceterá,52,word,1,True,1,1.021873950958252,2,
R2398,charlarían,53,word,2,True,1,0.9138529300689697,1,
R2398,faltaré,54,word,2,True,1,2.5918900966644287,1,
R2398,temería,55,word,2,True,1,0.8910658359527588,1,
R2398,casaré,56,word,2,True,1,1.07185697555542,1,
R2398,arderemos,57,word,2,True,1,2.7859487533569336,1,
R2398,cuarrían,58,word,1,True,1,1.245910882949829,2,
R2398,lailaremos,59,word,1,True,1,1.7008717060089111,2,
R2398,temeré,60,word,2,True,1,0.6830348968505859,1,
R2398,pactarían,61,word,2,True,1,1.1079010963439941,1,
R2398,sumaría,62,word,2,True,1,0.8948349952697754,1,
R2398,tosíamos,63,word,2,True,1,1.1938908100128174,1,
R2398,cisará,64,word,1,True,1,1.4530360698699951,2,
R2398,anríamos,65,word,1,True,1,1.2420861721038818,2,
R2398,galaría,66,word,1,True,1,0.9266948699951172,2,
R2398,corría,67,word,2,True,1,0.974931001663208,1,
R2398,lorgaba,68,word,1,True,1,1.2139551639556885,2,
R2398,narraba,69,word,2,True,1,0.8506839275360107,1,
R2398,pactaban,70,word,2,True,1,0.8799858093261719,1,
R2398,anreríamos,71,word,1,True,1,1.251957654953003,2,
R2398,gruñía,72,word,2,True,1,1.313838005065918,1,
R2398,formaríamos,73,word,2,True,1,1.7257189750671387,1,
R2398,luchaban,74,word,2,True,1,0.6910610198974609,1,
R2398,cipías,75,word,1,True,1,0.6609830856323242,2,
R2398,cisaba,76,word,1,True,1,1.159972906112671,2,
R2398,tujirán,77,word,1,True,1,0.9188761711120605,2,
R2398,sesían,78,word,1,True,1,1.275068998336792,2,
R2398,maftaré,79,word,1,True,1,0.9568178653717041,2,
R2398,sumarías,80,word,2,True,1,1.2117409706115723,1,
R2398,sauaría,81,word,1,True,1,1.122469186782837,2,
R2398,sufrirías,82,word,2,True,1,1.364980936050415,1,
R2398,cetaba,83,word,1,True,1,1.0298540592193604,2,
R2398,tosía,84,word,2,True,1,0.7678618431091309,1,
R2398,imiría,85,word,1,True,1,1.8368339538574219,2,
R2398,cetaremos,86,word,1,True,1,0.8619117736816406,2,
R2398,sufrirán,87,word,2,True,1,1.167909860610962,1,
R2398,tuplían,88,word,1,True,1,0.6824860572814941,2,
R2398,cetería,89,word,1,True,1,1.7749931812286377,2,
R2398,formaré,90,word,2,True,1,1.075402021408081,1,
R2398,ciperás,91,word,1,True,1,0.7168440818786621,2,
R2398,focaban,92,word,1,True,1,1.5248651504516602,2,
R2398,ceteré,93,word,1,True,1,0.7304279804229736,2,
R2398,correrán,94,word,2,True,1,0.767855167388916,1,
R2398,quijarás,95,word,1,True,1,0.7710511684417725,2,
R2398,sufriría,96,word,2,True,1,1.4118869304656982,1,
R2398,sindabas,97,word,1,True,1,0.7378060817718506,2,
R2398,rondará,98,word,2,True,1,0.8606967926025391,1,
R2398,runaba,99,word,1,True,1,0.8449468612670898,2,
R2398,luntirá,100,word,1,True,1,0.7040040493011475,2,
R2398,morderíamos,101,word,2,True,1,0.8920891284942627,1,
R2398,galábamos,102,word,1,True,1,0.866955041885376,2,
R2398,nadará,103,word,2,True,1,1.2699623107910156,1,
R2398,ceteremos,104,word,1,True,1,0.802788257598877,2,
R2398,eplábamos,105,word,1,True,1,1.0839166641235352,2,
R2398,coseremos,106,word,2,True,1,0.940943717956543,1,
R2398,subiré,107,word,2,True,1,0.787775993347168,1,
R2398,quijabas,108,word,1,True,1,0.661391019821167,2,
R2398,narraban,109,word,2,True,1,0.756066083908081,1,
R2398,charlaré,110,word,2,True,1,1.5249438285827637,1,
R2398,rotaban,111,word,2,True,1,0.7190639972686768,1,
R2398,ciperá,112,word,1,True,1,0.8419661521911621,2,
R2398,tujirían,113,word,1,True,1,0.9749040603637695,2,
R2398,toserían,114,word,2,True,1,0.8467428684234619,1,
R2398,unías,115,word,2,True,1,0.769942045211792,1,
R2398,rimarías,116,word,2,True,1,0.8278892040252686,1,
R2398,chanrarías,117,word,1,True,1,1.6119768619537354,2,
R2398,pactarás,118,word,2,True,1,0.9477100372314453,1,
R2398,gacharíamos,119,word,1,True,1,1.411933183670044,2,
R2398,sauaríamos,120,word,1,True,1,1.3130481243133545,2,
R2398,gachaban,121,word,1,True,1,0.8777289390563965,2,
R2398,frindería,122,word,1,True,1,1.4739530086517334,2,
R2398,runarías,123,word,1,True,1,1.1631522178649902,2,
R2398,chanraremos,124,word,1,True,1,1.5121169090270996,2,
R2398,cuarrías,125,word,1,True,1,0.7008628845214844,2,
R2398,somería,126,word,1,True,1,0.9369840621948242,2,
R2398,burrarán,127,word,1,True,1,0.6288800239562988,2,
R2398,chanrábamos,128,word,1,True,1,0.6560838222503662,2,
R2398,rayaban,129,word,2,True,1,1.0749588012695312,1,
R2398,porerán,130,word,1,True,1,1.1558961868286133,2,
R2398,nadaré,131,word,2,True,1,1.2769899368286133,1,
R2398,cederé,132,word,2,True,1,0.9450809955596924,1,
R2398,temerías,133,word,2,True,1,0.959719181060791,1,
R2398,unía,134,word,2,True,1,1.7480010986328125,1,
R2398,lailaríamos,135,word,1,True,1,0.6924362182617188,2,
R2398,partirás,136,word,2,True,1,1.1120359897613525,1,
R2398,pavarás,137,word,1,True,1,0.6489500999450684,2,
R2398,cumplirán,138,word,2,True,1,0.682884931564331,1,
R2398,galarán,139,word,1,True,1,0.669558048248291,2,
R2398,rondábamos,140,word,2,True,1,0.6098699569702148,1,
R2398,rotarás,141,word,2,True,1,0.6419961452484131,1,
R2398,imías,142,word,2,False,1,1.0635838508605957,2,
R2398,hondías,143,word,1,True,1,1.0049808025360107,2,
R2398,lucharé,144,word,2,True,1,0.809816837310791,1,
R2398,metías,145,word,2,True,1,1.1718683242797852,1,
R2398,sesíamos,146,word,1,True,1,1.0988879203796387,2,
R2398,vultabas,147,word,1,True,1,1.01934814453125,2,
R2398,corrían,148,word,2,True,1,0.8570461273193359,1,
R2398,mardirías,149,word,1,True,1,1.801896095275879,2,
R2398,luntirán,150,word,1,True,1,0.7469170093536377,2,
R2398,lamerá,151,word,2,True,1,0.8917601108551025,1,
R2398,comías,152,word,2,True,1,0.8319637775421143,1,
R2398,sesía,153,word,1,True,1,1.3120458126068115,2,
R2398,cortaré,154,word,2,True,1,1.0498640537261963,1,
R2398,honderías,155,word,1,True,1,2.1197659969329834,2,
R2398,ritías,156,word,1,True,1,0.87776780128479,2,
R2398,hondía,157,word,1,True,2,1.7848031520843506,2,
R2398,uniría,158,word,2,True,2,0.9496867656707764,1,
R2398,morderían,159,word,2,True,2,0.7479958534240723,1,
R2398,zusábamos,160,word,1,True,2,1.341991901397705,2,
R2398,cetía,161,word,1,True,2,1.8419950008392334,2,
R2398,obrarían,162,word,2,True,2,0.9891901016235352,1,
R2398,lachíamos,163,word,1,True,2,2.456120014190674,2,
R2398,mardirás,164,word,1,True,2,1.0663800239562988,2,
R2398,quemaremos,165,word,2,True,2,0.8909378051757812,1,
R2398,unirás,166,word,2,True,2,0.6510071754455566,1,
R2398,arderán,167,word,2,True,2,0.765315055847168,1,
R2398,rayaré,168,word,2,True,2,1.0612070560455322,1,
R2398,bigarán,169,word,1,True,2,0.7149021625518799,2,
R2398,vultaría,170,word,1,True,2,0.9150049686431885,2,
R2398,quijaría,171,word,1,True,2,0.7961490154266357,2,
R2398,besaría,172,word,2,True,2,0.7372767925262451,1,
R2398,juraría,173,word,2,True,2,0.7052459716796875,1,
R2398,fundiré,174,word,2,True,2,0.7952079772949219,1,
R2398,frinderías,175,word,1,True,2,1.0073599815368652,2,
R2398,imirá,176,word,1,True,2,0.8305599689483643,2,
R2398,ritíamos,177,word,1,True,2,0.9090969562530518,2,
R2398,meterían,178,word,2,True,2,0.7822158336639404,1,
R2398,lailaban,179,word,1,True,2,0.767153263092041,2,
R2398,nadabas,180,word,2,True,2,0.8894031047821045,1,
R2398,partirías,181,word,2,True,2,1.0440871715545654,1,
R2398,eplaremos,182,word,1,True,2,1.0392208099365234,2,
R2398,ceflerían,183,word,1,True,2,1.2211191654205322,2,
R2398,imirías,184,word,1,True,2,0.7600581645965576,2,
R2398,gacharán,185,word,1,True,2,0.6489710807800293,2,
R2398,barreremos,186,word,2,True,2,1.4250290393829346,1,
R2398,vultaba,187,word,1,True,2,0.7839431762695312,2,
R2398,correré,188,word,2,True,2,1.4108779430389404,1,
R2398,lailaba,189,word,1,True,2,0.6210360527038574,2,
R2398,barrerás,190,word,2,True,2,0.9030437469482422,1,
R2398,comíamos,191,word,2,True,2,0.8078792095184326,1,
R2398,unirán,192,word,2,True,2,1.0157439708709717,1,
R2398,focaremos,193,word,1,True,2,1.0987730026245117,2,
R2398,lorgarían,194,word,1,True,2,1.5449659824371338,2,
R2398,cichiría,195,word,1,True,2,0.7098939418792725,2,
R2398,galarías,196,word,1,True,2,0.7368588447570801,2,
R2398,poreremos,197,word,1,True,2,0.8677377700805664,2,
R2398,monceremos,198,word,1,True,2,0.770827054977417,2,
R2398,cumplían,199,word,2,True,2,0.6509630680084229,1,
R2398,someríamos,200,word,1,True,2,0.7450220584869385,2,
R2398,arderé,201,word,2,True,2,0.6368720531463623,1,
R2398,lameré,202,word,2,True,2,0.6940128803253174,1,
R2398,formarán,203,word,2,True,2,0.8349409103393555,1,
R2398,ceterías,204,word,1,True,2,1.7030360698699951,2,
R2398,barrerá,205,word,2,True,2,1.0097980499267578,1,
R2398,tosería,206,word,2,True,2,0.875845193862915,1,
R2398,gruñías,207,word,2,True,2,0.7758708000183105,1,
R2398,retaríamos,208,word,2,True,2,1.413954734802246,1,
R2398,imiremos,209,word,1,True,2,0.7290451526641846,2,
R2398,quijaremos,210,word,1,True,2,1.3369839191436768,2,
R2398,ceterán,211,word,1,True,2,0.8230299949645996,2,
R2398,ceflías,212,word,1,True,2,0.7089002132415771,2,
R2398,barrerían,213,word,2,True,2,0.7350280284881592,1,
R2398,cedía,214,word,2,True,2,1.1080701351165771,1,
R2398,formarían,215,word,2,True,2,0.81201171875,1,
R2398,mardirán,216,word,1,True,2,1.1640119552612305,2,
R2398,bigará,217,word,1,True,2,0.7490837574005127,2,
R2398,narrábamos,218,word,2,True,2,0.9369480609893799,1,
R2398,subía,219,word,2,True,2,0.6899168491363525,1,
R2398,pavarían,220,word,1,True,2,0.9049861431121826,2,
R2398,eplará,221,word,1,True,2,0.6278460025787354,2,
R2398,cuarría,222,word,1,True,2,0.7459850311279297,2,
R2398,sindábamos,223,word,1,True,2,0.8560171127319336,2,
R2398,mertarían,224,word,1,True,2,0.9429440498352051,2,
R2398,seseremos,225,word,1,True,2,1.2649281024932861,2,
R2398,rimará,226,word,2,True,2,1.1971240043640137,1,
R2398,riterías,227,word,1,True,2,0.7458651065826416,2,
R2398,sumaban,228,word,2,True,2,0.752877950668335,1,
R2398,obrarías,229,word,2,True,2,0.7779698371887207,1,
R2398,luntirás,230,word,1,True,2,0.7498319149017334,2,
R2398,morderé,231,word,2,True,2,0.8009490966796875,1,
R2398,besaremos,232,word,2,True,2,0.7628617286682129,1,
R2398,sumabas,233,word,2,True,2,0.7778072357177734,1,
R2398,luntiría,234,word,1,True,2,0.9354090690612793,2,
R2398,ciperé,235,word,1,True,2,0.6588361263275146,2,
R2398,pactarán,236,word,1,False,2,0.7049150466918945,1,
R2398,cumplíamos,237,word,2,True,2,0.6598012447357178,1,
R2398,faltarías,238,word,2,True,2,0.6379637718200684,1,
R2398,narraría,239,word,2,True,2,0.710615873336792,1,
R2398,mertábamos,240,word,1,True,2,1.2398841381072998,2,
R2398,cubrirán,241,word,2,True,2,1.0749669075012207,1,
R2398,burrará,242,word,1,True,2,1.8859808444976807,2,
R2398,riteremos,243,word,1,True,2,0.7079730033874512,2,
R2398,rimaríamos,244,word,2,True,2,1.2082290649414062,1,
R2398,vultarás,245,word,1,True,2,0.6775801181793213,2,
R2398,moncerías,246,word,1,True,2,1.0078418254852295,2,
R2398,partían,247,word,2,True,2,1.2750530242919922,1,
R2398,mordía,248,word,2,True,2,2.0138368606567383,1,
R2398,charlarán,249,word,2,True,2,0.6950442790985107,1,
R2398,lailaré,250,word,1,True,2,0.5886669158935547,2,
R2398,lamías,251,word,2,True,2,0.8619921207427979,1,
R2398,meterías,252,word,2,True,2,0.6199638843536377,1,
R2398,cuarrirías,253,word,1,True,2,0.6280789375305176,2,
R2398,eplaban,254,word,1,True,2,0.6567301750183105,2,
R2398,correría,255,word,2,True,2,0.8349881172180176,1,
R2398,faltará,256,word,2,True,2,1.3018748760223389,1,
R2398,anreré,257,word,1,True,2,1.5779500007629395,2,
R2398,anrerías,258,word,1,True,2,0.7677798271179199,2,
R2398,casaba,259,word,2,True,2,0.6929593086242676,1,
R2398,anría,260,word,1,True,2,0.5700039863586426,2,
R2398,cubrirías,261,word,2,True,2,0.7708451747894287,1,
R2398,pactaré,262,word,1,False,2,1.8343310356140137,1,
R2398,somerás,263,word,1,True,2,2.6209568977355957,2,
R2398,barrían,264,word,2,True,2,0.8779878616333008,1,
R2398,maftaría,265,word,1,True,2,0.9959399700164795,2,
R2398,sindarán,266,word,1,True,2,0.7310190200805664,2,
R2398,faltábamos,267,word,2,True,2,0.8180451393127441,1,
R2398,uníamos,268,word,2,True,2,0.6197140216827393,1,
R2398,bruvirá,269,word,1,True,2,0.8176770210266113,2,
R2398,charlarás,270,word,2,True,2,0.6859409809112549,1,
R2398,fundías,271,word,2,True,2,1.2309870719909668,1,
R2398,cortaríamos,272,word,2,True,2,1.1790990829467773,1,
R2398,comería,273,word,2,True,2,0.683046817779541,1,
R2398,besarías,274,word,2,True,2,0.5780911445617676,1,
R2398,lorgará,275,word,1,True,2,0.9219298362731934,2,
R2398,gruñirás,276,word,2,True,2,1.1169788837432861,1,
R2398,charlaban,277,word,2,True,2,0.6489591598510742,1,
R2398,cosería,278,word,2,True,2,0.972681999206543,1,
R2398,anreremos,279,word,1,True,2,0.601179838180542,2,
R2398,luchará,280,word,2,True,2,1.0759010314941406,1,
R2398,lamería,281,word,2,True,2,0.9289312362670898,1,
R2398,prendían,282,word,2,True,2,0.6909382343292236,1,
R2398,burraría,283,word,1,True,2,1.5729169845581055,2,
R2398,lacherían,284,word,1,True,2,0.8880069255828857,2,
R2398,hondería,285,word,1,True,2,1.157012939453125,2,
R2398,faltaríamos,286,word,2,True,2,1.0768959522247314,1,
R2398,faltaban,287,word,2,True,2,0.5789308547973633,1,
R2398,cichíamos,288,word,1,True,2,1.0469481945037842,2,
R2398,partíamos,289,word,2,True,2,1.413764238357544,1,
R2398,pavaban,290,word,1,True,2,0.660794734954834,2,
R2398,lucharemos,291,word,2,True,2,0.6137990951538086,1,
R2398,juraban,292,word,2,True,2,0.6128029823303223,1,
R2398,sindaríamos,293,word,1,True,2,0.6159231662750244,2,
R2398,narraré,294,word,2,True,2,0.655879020690918,1,
R2398,sindarás,295,word,1,True,2,0.623772144317627,2,
R2398,cortaría,296,word,2,True,2,0.6049189567565918,1,
R2398,formaremos,297,word,2,True,2,0.6718919277191162,1,
R2398,burraba,298,word,1,True,2,0.5849089622497559,2,
R2398,sumaríamos,299,word,2,True,2,0.6361632347106934,1,
R2398,tujían,300,word,1,True,2,0.6367559432983398,2,
R2398,cenarías,301,word,2,True,2,0.9498810768127441,1,
R2398,casaría,302,word,2,True,2,0.7520461082458496,1,
R2398,mardíamos,303,word,1,True,2,0.7888481616973877,2,
R2398,ceflerías,304,word,1,True,2,0.5779538154602051,2,
R2398,casarías,305,word,2,True,2,1.0959110260009766,1,
R2398,bruvirías,306,word,1,True,2,0.6568801403045654,2,
R2398,zusaríamos,307,word,1,True,2,1.0060067176818848,2,
R2398,barríamos,308,word,2,True,2,1.7497570514678955,1,
R2398,quemarás,309,word,2,True,2,0.6880190372467041,1,
R2398,tupliremos,310,word,1,True,2,0.6318869590759277,2,
R2398,focabas,311,word,1,True,2,1.202906847000122,2,
R2398,lorgarás,312,word,1,True,2,2.5147931575775146,2,
R2398,sufríamos,313,word,2,True,3,2.686962842941284,1,
R2398,gruñían,314,word,2,True,3,1.1640400886535645,1,
R2398,sufrirás,315,word,2,True,3,1.0802628993988037,1,
R2398,bigaré,316,word,1,True,3,1.0818979740142822,2,
R2398,sufrían,317,word,2,True,3,1.5939559936523438,1,
R2398,lailarías,318,word,1,True,3,1.3959689140319824,2,
R2398,tosían,319,word,2,True,3,0.9101471900939941,1,
R2398,mardirían,320,word,1,True,3,0.768975019454956,2,
R2398,cisarían,321,word,1,True,3,0.6624119281768799,2,
R2398,honderé,322,word,1,True,3,1.27392578125,2,
R2398,pavábamos,323,word,1,True,3,0.8250770568847656,2,
R2398,quemaré,324,word,2,True,3,0.6329748630523682,1,
R2398,coserán,325,word,2,True,3,0.8283920288085938,1,
R2398,jurarías,326,word,2,True,3,0.8209271430969238,1,
R2398,faltabas,327,word,2,True,3,1.2697160243988037,1,
R2398,faltarás,328,word,2,True,3,1.7367901802062988,1,
R2398,gruñiría,329,word,2,True,3,0.7749588489532471,1,
R2398,gacharé,330,word,1,True,3,0.7550761699676514,2,
R2398,bigabas,331,word,1,True,3,0.6011178493499756,2,
R2398,gacharás,332,word,1,True,3,0.9368839263916016,2,
R2398,fundirán,333,word,1,False,3,0.6865191459655762,1,
R2398,ardía,334,word,2,True,3,0.8209207057952881,1,
R2398,cortaban,335,word,2,True,3,0.6588947772979736,1,
R2398,correrían,336,word,2,True,3,0.8879597187042236,1,
R2398,arderíamos,337,word,2,True,3,1.8101367950439453,1,
R2398,cumplía,338,word,2,True,3,1.4228029251098633,1,
R2398,gruñiremos,339,word,2,True,3,0.7099490165710449,1,
R2398,ceteríamos,340,word,1,True,3,0.6889820098876953,2,
R2398,sumábamos,341,word,2,True,3,0.7049498558044434,1,
R2398,narrarás,342,word,2,True,3,0.6204121112823486,1,
R2398,fundía,343,word,1,False,3,0.7900919914245605,1,
R2398,sindará,344,word,1,True,3,0.8738501071929932,2,
R2398,rimaban,345,word,2,True,3,0.8409268856048584,1,
R2398,prendía,346,word,2,True,3,0.9229550361633301,1,
R2398,runarás,347,word,1,True,3,0.7608330249786377,2,
R2398,rayarán,348,word,2,True,3,0.8779540061950684,1,
R2398,correrás,349,word,2,True,3,1.1219661235809326,1,
R2398,cichiremos,350,word,1,True,3,0.7060720920562744,2,
R2398,anrían,351,word,1,True,3,0.6889362335205078,2,
R2398,bailarán,352,word,2,True,3,0.6698980331420898,1,
R2398,uniríamos,353,word,2,True,3,0.8108150959014893,1,
R2398,anrería,354,word,1,True,3,0.5728859901428223,2,
R2398,cumplirá,355,word,2,True,3,0.8530590534210205,1,
R2398,luntíamos,356,word,1,True,3,0.9567439556121826,2,
R2398,ceflerá,357,word,1,True,3,0.6158618927001953,2,
R2398,rayaría,358,word,2,True,3,0.790053129196167,1,
R2398,runaríamos,359,word,1,True,3,0.7438201904296875,2,
R2398,besarás,360,word,2,True,3,1.1367688179016113,1,
R2398,moncerán,361,word,1,True,3,0.7520129680633545,2,
R2398,retabas,362,word,2,True,3,1.1698861122131348,1,
R2398,narrarán,363,word,2,True,3,0.6868538856506348,1,
R2398,fanías,364,word,1,True,3,1.100905179977417,2,
R2398,cubrirás,365,word,2,True,3,0.6857972145080566,1,
R2398,cumplirían,366,word,2,True,3,0.6370441913604736,1,
R2398,barrías,367,word,2,True,3,0.7810649871826172,1,
R2398,porerías,368,word,1,True,3,0.8659520149230957,2,
R2398,sauaba,369,word,1,True,3,0.9267501831054688,2,
R2398,vultarían,370,word,1,True,3,0.9308638572692871,2,
R2398,eplarían,371,word,1,True,3,1.0789499282836914,2,
R2398,sufrías,372,word,2,True,3,0.9168572425842285,1,
R2398,cipería,373,word,1,True,3,0.5900979042053223,2,
R2398,bigábamos,374,word,1,True,3,2.715831995010376,2,
R2398,retaban,375,word,2,True,3,2.3889200687408447,1,
R2398,chanraríamos,376,word,1,True,3,1.6500308513641357,2,
R2398,prenderás,377,word,2,True,3,0.8389079570770264,1,
R2398,vendía,378,word,2,True,3,0.809398889541626,1,
R2398,toserá,379,word,2,True,3,0.6908690929412842,1,
R2398,besaba,380,word,2,True,3,1.1779770851135254,1,
R2398,lamerás,381,word,2,True,3,0.711076021194458,1,
R2398,frinderían,382,word,1,True,3,1.8669381141662598,2,
R2398,maftabas,383,word,1,True,3,0.6768889427185059,2,
R2398,mertaría,384,word,1,True,3,0.6349852085113525,2,
R2398,sauabas,385,word,1,True,3,0.6819069385528564,2,
R2398,obrabas,386,word,2,True,3,1.2398879528045654,1,
R2398,maftarán,387,word,1,True,3,0.5930566787719727,2,
R2398,rondaría,388,word,1,False,3,1.2258000373840332,1,
R2398,lorgarías,389,word,1,True,3,1.0420119762420654,2,
R2398,honderán,390,word,1,True,3,0.621161937713623,2,
R2398,moncía,391,word,1,True,3,0.5379259586334229,2,
R2398,morderemos,392,word,2,True,3,0.7228779792785645,1,
R2398,cubriremos,393,word,2,True,3,0.6878998279571533,1,
R2398,obrarán,394,word,2,True,3,0.6470010280609131,1,
R2398,sauarías,395,word,1,True,3,0.9018890857696533,2,
R2398,barrerán,396,word,2,True,3,0.979093074798584,1,
R2398,vendías,397,word,2,True,3,0.7849180698394775,1,
R2398,porerá,398,word,1,True,3,0.6999351978302002,2,
R2398,ceflería,399,word,1,True,3,0.6378786563873291,2,
R2398,casarían,400,word,2,True,3,0.8991169929504395,1,
R2398,chanrabas,401,word,1,True,3,0.8419089317321777,2,
R2398,casarás,402,word,2,True,3,1.0248782634735107,1,
R2398,rimaba,403,word,2,True,3,0.6998088359832764,1,
R2398,tosías,404,word,2,True,3,1.0028810501098633,1,
R2398,burraremos,405,word,1,True,3,1.0579519271850586,2,
R2398,bruvías,406,word,1,True,3,0.8786530494689941,2,
R2398,galaba,407,word,1,True,3,1.036952018737793,2,
R2398,gruñiríamos,408,word,2,True,3,1.3753020763397217,1,
R2398,charlaríamos,409,word,2,True,3,0.7739558219909668,1,
R2398,cuarriríamos,410,word,1,True,3,1.2860097885131836,2,
R2398,moncerían,411,word,1,True,3,0.7710537910461426,2,
R2398,rimarán,412,word,2,True,3,1.195007085800171,1,
R2398,focarás,413,word,1,True,3,0.8097348213195801,2,
R2398,prenderían,414,word,2,True,3,1.4213697910308838,1,
R2398,cumplirías,415,word,2,True,3,1.0459182262420654,1,
R2398,mardiremos,416,word,1,True,3,1.4417028427124023,2,
R2398,cuarriría,417,word,1,True,3,0.7478461265563965,2,
R2398,gruñirían,418,word,2,True,3,1.5892369747161865,1,
R2398,retará,419,word,2,True,3,0.7509651184082031,1,
R2398,focará,420,word,1,True,3,0.9350090026855469,2,
R2398,runarían,421,word,1,True,3,1.2148680686950684,2,
R2398,ciperán,422,word,1,True,3,0.6579580307006836,2,
R2398,rondabas,423,word,1,False,3,1.6600019931793213,1,
R2398,sauará,424,word,1,True,3,0.8270559310913086,2,
R2398,narraríamos,425,word,2,True,3,0.7808380126953125,1,
R2398,lacherás,426,word,1,True,3,0.701956033706665,2,
R2398,cortarían,427,word,2,True,3,0.8923459053039551,1,
R2398,maftaban,428,word,1,True,3,0.6930170059204102,2,
R2398,frinderemos,429,word,1,True,3,1.2698230743408203,2,
R2398,cenará,430,word,2,True,3,0.9159200191497803,1,
R2398,pavaríamos,431,word,1,True,3,0.706967830657959,2,
R2398,subirá,432,word,2,True,3,0.5768301486968994,1,
R2398,cenaba,433,word,2,True,3,0.7158558368682861,1,
R2398,cortarás,434,word,2,True,3,0.6899218559265137,1,
R2398,subíamos,435,word,2,True,3,0.6319777965545654,1,
R2398,imíamos,436,word,1,True,3,1.250007152557373,2,
R2398,lailábamos,437,word,1,True,3,0.8768250942230225,2,
R2398,partirá,438,word,2,True,3,0.8029448986053467,1,
R2398,toseremos,439,word,2,True,3,0.7459759712219238,1,
R2398,sauarán,440,word,1,True,3,0.8660428524017334,2,
R2398,cisarás,441,word,1,True,3,0.6468679904937744,2,
R2398,lacheríamos,442,word,1,True,3,0.9428951740264893,2,
R2398,imirán,443,word,1,True,3,0.7729940414428711,2,
R2398,galaríamos,444,word,1,True,3,0.705690860748291,2,
R2398,fundiría,445,word,1,False,3,1.6930720806121826,1,
R2398,bigarías,446,word,1,True,3,0.7189607620239258,2,
R2398,charlarías,447,word,2,True,3,0.9079208374023438,1,
R2398,temerán,448,word,2,True,3,0.8118319511413574,1,
R2398,gacharemos,449,word,1,True,3,0.8688929080963135,2,
R2398,cuarríamos,450,word,1,True,3,0.7029039859771729,2,
R2398,gacharía,451,word,1,True,3,0.7089800834655762,2,
R2398,subías,452,word,2,True,3,0.7069718837738037,1,
R2398,zusabas,453,word,1,True,3,0.7649452686309814,2,
R2398,cumplías,454,word,2,True,3,0.6499598026275635,1,
R2398,maftaremos,455,word,1,True,3,0.7537033557891846,2,
R2398,lacheremos,456,word,1,True,3,0.7138779163360596,2,
R2398,coserás,457,word,2,True,3,0.8721210956573486,1,
R2398,somía,458,word,1,True,3,1.6469700336456299,2,
R2398,lorgaré,459,word,1,True,3,1.1099607944488525,2,
R2398,lamía,460,word,2,True,3,0.983083963394165,1,
R2398,rayarías,461,word,2,True,3,0.9620637893676758,1,
R2398,coserían,462,word,2,True,3,0.7968988418579102,1,
R2398,vendíamos,463,word,2,True,3,0.6459200382232666,1,
R2398,sumaremos,464,word,2,True,3,0.7614130973815918,1,
R2398,correremos,465,word,2,True,3,1.1850099563598633,1,
R2398,rondarás,466,word,2,True,3,1.4829421043395996,1,
R2398,rotaré,467,word,2,True,3,0.6709213256835938,1,
R2398,riterá,468,word,1,True,3,0.7710089683532715,2,
R2398,faltaría,469,word,2,True,4,1.1289410591125488,1,
R2398,rotaremos,470,word,2,True,4,0.87990403175354,1,
R2398,cortarías,471,word,2,True,4,1.2190239429473877,1,
R2398,seserías,472,word,1,True,4,0.9899539947509766,2,
R2398,sumaba,473,word,2,True,4,0.6450319290161133,1,
R2398,chanrarían,474,word,1,True,4,0.8630120754241943,2,
R2398,barría,475,word,2,True,4,0.604896068572998,1,
R2398,seserás,476,word,1,True,4,0.9040529727935791,2,
R2398,zusarán,477,word,1,True,4,0.9000198841094971,2,
R2398,somerán,478,word,1,True,4,0.9668197631835938,2,
R2398,corrías,479,word,2,True,4,0.655987024307251,1,
R2398,ciperemos,480,word,1,True,4,0.616940975189209,2,
R2398,sauábamos,481,word,1,True,4,0.6979830265045166,2,
R2398,riterás,482,word,1,True,4,1.2679009437561035,2,
R2398,temía,483,word,2,True,4,0.5569379329681396,1,
R2398,unirías,484,word,2,True,4,0.7380123138427734,1,
R2398,someré,485,word,1,True,4,0.7597601413726807,2,
R2398,mordían,486,word,2,True,4,1.1769468784332275,1,
R2398,ardías,487,word,2,True,4,0.6815502643585205,1,
R2398,ardería,488,word,2,True,4,0.6969120502471924,1,
R2398,gruñirán,489,word,2,True,4,0.5778911113739014,1,
R2398,zusaba,490,word,1,True,4,0.6279690265655518,2,
R2398,fundirías,491,word,1,False,4,1.829723834991455,1,
R2398,comeré,492,word,2,True,4,0.990103006362915,1,
R2398,casaremos,493,word,2,True,4,3.046046018600464,1,
R2398,zusará,494,word,1,True,4,0.562248945236206,2,
R2398,prenderán,495,word,2,True,4,0.6449747085571289,1,
R2398,pavaré,496,word,1,True,4,0.644075870513916,2,
R2398,cortará,497,word,2,True,4,0.7989978790283203,1,
R2398,sauaban,498,word,1,True,4,0.6800000667572021,2,
R2398,cubrías,499,word,2,True,4,0.7437078952789307,1,
R2398,runaban,500,word,1,True,4,0.676964282989502,2,
R2398,rondaban,501,word,2,True,4,0.7759349346160889,1,
R2398,temerás,502,word,2,True,4,0.5510859489440918,1,
R2398,subirás,503,word,2,True,4,0.5670340061187744,1,
R2398,barrerías,504,word,2,True,4,0.565418004989624,1,
R2398,mertaremos,505,word,1,True,4,1.7318341732025146,2,
R2398,cisarías,506,word,1,True,4,0.6089920997619629,2,
R2398,pactaba,507,word,2,True,4,0.9147467613220215,1,
R2398,cumpliría,508,word,2,True,4,0.5348548889160156,1,
R2398,comeremos,509,word,2,True,4,0.7050681114196777,1,
R2398,honderemos,510,word,1,True,4,1.1127538681030273,2,
R2398,cetarás,511,word,1,True,4,0.906951904296875,2,
R2398,chanrarán,512,word,1,True,4,0.8850507736206055,2,
R2398,formaría,513,word,2,True,4,0.9159860610961914,1,
R2398,nadarías,514,word,2,True,4,0.8779118061065674,1,
R2398,fanerían,515,word,1,True,4,0.6829190254211426,2,
R2398,cenaremos,516,word,2,True,4,0.6298890113830566,1,
R2398,luntiré,517,word,1,True,4,0.6399171352386475,2,
R2398,prenderíamos,518,word,2,True,4,0.8058760166168213,1,
R2398,tuplirá,519,word,1,True,4,0.7040600776672363,2,
R2398,vultaban,520,word,1,True,4,0.8982489109039307,2,
R2398,bimaban,521,word,1,True,4,0.822824239730835,2,
R2398,moncías,522,word,1,True,4,0.7978570461273193,2,
R2398,cedíamos,523,word,1,False,4,0.8040988445281982,1,
R2398,sindaré,524,word,1,True,4,1.5250229835510254,2,
R2398,besarán,525,word,2,True,4,0.6399080753326416,1,
R2398,rotarán,526,word,2,True,4,1.2278530597686768,1,
R2398,focarías,527,word,1,True,4,0.9771022796630859,2,
R2398,porería,528,word,1,True,4,0.9020192623138428,2,
R2398,metíamos,529,word,2,True,4,0.5960731506347656,1,
R2398,zusaban,530,word,1,True,4,0.7059919834136963,2,
R2398,charlábamos,531,word,2,True,4,0.679973840713501,1,
R2398,mardiríamos,532,word,1,True,4,1.0340549945831299,2,
R2398,cortarán,533,word,2,True,4,0.9639360904693604,1,
R2398,hondían,534,word,1,True,4,0.8446917533874512,2,
R2398,cumplirás,535,word,2,True,4,0.6228470802307129,1,
R2398,narrarían,536,word,2,True,4,0.7120349407196045,1,
R2398,partía,537,word,2,True,4,0.5940260887145996,1,
R2398,luchábamos,538,word,2,True,4,1.2429628372192383,1,
R2398,bigaría,539,word,1,True,4,0.8429298400878906,2,
R2398,partías,540,word,2,True,4,0.8117799758911133,1,
R2398,gruñiré,541,word,2,True,4,0.609856128692627,1,
R2398,pactarías,542,word,2,True,4,0.9070451259613037,1,
R2398,imiríamos,543,word,1,True,4,0.693122148513794,2,
R2398,somían,544,word,1,True,4,0.6948573589324951,2,
R2398,cosíamos,545,word,2,True,4,0.8589692115783691,1,
R2398,sufriríamos,546,word,2,True,4,0.8019411563873291,1,
R2398,casábamos,547,word,2,True,4,2.1169121265411377,1,
R2398,mertaba,548,word,1,True,4,0.7780811786651611,2,
R2398,narrabas,549,word,2,True,4,0.5967707633972168,1,
R2398,casabas,550,word,2,True,4,0.5680019855499268,1,
R2398,jurabas,551,word,2,True,4,0.7510483264923096,1,
R2398,burrábamos,552,word,1,True,4,0.9187898635864258,2,
R2398,riteríamos,553,word,1,True,4,0.7080411911010742,2,
R2398,casaríamos,554,word,2,True,4,0.682023286819458,1,
R2398,moncerá,555,word,1,True,4,0.6378481388092041,2,
R2398,burrabas,556,word,1,True,4,0.6110191345214844,2,
R2398,narrará,557,word,2,True,4,0.7039458751678467,1,
R2398,poríamos,558,word,1,True,4,0.6189203262329102,2,
R2398,rotarías,559,word,2,True,4,0.770043134689331,1,
R2398,sesías,560,word,1,True,4,0.5940039157867432,2,
R2398,pactará,561,word,2,True,4,0.8999311923980713,1,
R2398,rayabas,562,word,2,True,4,0.7669618129730225,1,
R2398,morderías,563,word,2,True,4,0.9079930782318115,1,
R2398,besaban,564,word,2,True,4,0.6290879249572754,1,
R2398,zusaría,565,word,1,True,4,0.5310790538787842,2,
R2398,rayaremos,566,word,2,True,4,0.7085599899291992,1,
R2398,lachería,567,word,1,True,4,0.6349282264709473,2,
R2398,bimarían,568,word,1,True,4,1.4470198154449463,2,
R2398,rimabas,569,word,2,True,4,0.7881450653076172,1,
R2398,obrábamos,570,word,2,True,4,0.7643001079559326,1,
R2398,formarías,571,word,2,True,4,1.2777159214019775,1,
R2398,imían,572,word,1,True,4,0.9569530487060547,2,
R2398,focarán,573,word,1,True,4,0.7670371532440186,2,
R2398,quijarán,574,word,1,True,4,1.189863920211792,2,
R2398,cetaré,575,word,1,True,4,0.7189888954162598,2,
R2398,vultaremos,576,word,1,True,4,1.3329861164093018,2,
R2398,cisaré,577,word,1,True,4,0.7549479007720947,2,
R2398,arderías,578,word,2,True,4,0.7443268299102783,1,
R2398,cipía,579,word,1,True,4,0.6869292259216309,2,
R2398,mertabas,580,word,1,True,4,1.2498631477355957,2,
R2398,lorgaban,581,word,1,True,4,0.8635931015014648,2,
R2398,sumarán,582,word,2,True,4,0.6942107677459717,1,
R2398,cefleremos,583,word,1,True,4,1.045686960220337,2,
R2398,bimábamos,584,word,1,True,4,1.0205988883972168,2,
R2398,gruñirías,585,word,2,True,4,0.8575291633605957,1,
R2398,pavaremos,586,word,1,True,4,0.8822169303894043,2,
R2398,mertaríamos,587,word,1,True,4,0.9981491565704346,2,
R2398,venderían,588,word,2,True,4,0.7891180515289307,1,
R2398,quijaríamos,589,word,1,True,4,0.9216907024383545,2,
R2398,somíamos,590,word,1,True,4,0.7813701629638672,2,
R2398,lailarán,591,word,1,True,4,0.6880941390991211,2,
R2398,luchaba,592,word,2,True,4,0.6660659313201904,1,
R2398,ritían,593,word,1,True,4,0.7852280139923096,2,
R2398,bailaríamos,594,word,2,True,4,1.3191158771514893,1,
R2398,cosían,595,word,2,True,4,0.7022700309753418,1,
R2398,coserá,596,word,2,True,4,0.8698749542236328,1,
R2398,pavará,597,word,1,True,4,0.6503860950469971,2,
R2398,moncíamos,598,word,1,True,4,1.0223209857940674,2,
R2398,faltaremos,599,word,2,True,4,0.8982212543487549,1,
R2398,tupliré,600,word,1,True,4,0.9863917827606201,2,
R2398,comían,601,word,2,True,4,0.757349967956543,1,
R2398,lorgaríamos,602,word,1,True,4,1.6749200820922852,2,
R2398,cetará,603,word,1,True,4,1.0078811645507812,2,
R2398,tuplíamos,604,word,1,True,4,1.789060115814209,2,
R2398,venderías,605,word,2,True,4,0.6379959583282471,1,
R2398,cetaríamos,606,word,1,True,4,2.0418989658355713,2,
R2398,porían,607,word,1,True,4,0.6359617710113525,2,
R2398,temeríamos,608,word,2,True,4,0.7458059787750244,1,
R2398,bimaré,609,word,1,True,4,0.6588032245635986,2,
R2398,rondaré,610,word,2,True,4,0.5669279098510742,1,
R2398,unían,611,word,2,True,4,0.7399399280548096,1,
R2398,unirían,612,word,2,True,4,0.9958059787750244,1,
R2398,cichirían,613,word,1,True,4,0.6918540000915527,2,
R2398,bailarían,614,word,2,True,4,1.0248548984527588,1,
R2398,sindarías,615,word,1,True,4,0.670928955078125,2,
R2398,luntían,616,word,1,True,4,0.8308620452880859,2,
R2398,anrías,617,word,1,True,4,0.9338200092315674,2,
R2398,lucharía,618,word,2,True,4,0.610975980758667,1,
R2398,focábamos,619,word,1,True,4,0.8418982028961182,2,
R2398,cichías,620,word,1,True,4,0.7178268432617188,2,
R2398,lailaría,621,word,1,True,4,1.1197559833526611,2,
R2398,eplarán,622,word,1,True,4,0.7640261650085449,2,
R2398,cetías,623,word,1,True,4,1.6529350280761719,2,
R2398,arderás,624,word,2,True,4,0.6749639511108398,1,
R2398,retarás,625,word,2,True,5,0.835036039352417,1,
R2398,sindaba,626,word,1,True,5,0.6909570693969727,2,
R2398,poreríamos,627,word,1,True,5,0.7810490131378174,2,
R2398,morderás,628,word,2,True,5,0.6529278755187988,1,
R2398,seserán,629,word,1,True,5,1.4529240131378174,2,
R2398,bimaríamos,630,word,1,True,5,0.9769988059997559,2,
R2398,focaría,631,word,1,True,5,0.6737480163574219,2,
R2398,rondaba,632,word,2,True,5,2.0138702392578125,1,
R2398,cederán,633,word,2,True,5,0.9869451522827148,1,
R2398,bailará,634,word,2,True,5,0.7298858165740967,1,
R2398,prenderé,635,word,2,True,5,1.3739171028137207,1,
R2398,mertará,636,word,1,True,5,1.166877269744873,2,
R2398,frindías,637,word,1,True,5,0.8007869720458984,2,
R2398,formarás,638,word,2,True,5,1.7430107593536377,1,
R2398,lucharán,639,word,2,True,5,0.8569438457489014,1,
R2398,honderían,640,word,1,True,5,0.809014081954956,2,
R2398,rondarías,641,word,2,True,5,1.309870958328247,1,
R2398,bimará,642,word,1,True,5,0.7299301624298096,2,
R2398,chanraría,643,word,1,True,5,0.97890305519104,2,
R2398,retaría,644,word,2,True,5,1.0329599380493164,1,
R2398,mertarán,645,word,1,True,5,0.8590042591094971,2,
R2398,maftábamos,646,word,1,True,5,1.2987382411956787,2,
R2398,toseríamos,647,word,2,True,5,0.7789821624755859,1,
R2398,cichiré,648,word,1,True,5,0.8519046306610107,2,
R2398,cortaba,649,word,2,True,5,0.9953372478485107,1,
R2398,lamerías,650,word,2,True,5,0.7168898582458496,1,
R2398,narrarías,651,word,2,True,5,0.8079469203948975,1,
R2398,tuplirán,652,word,1,True,5,0.7939512729644775,2,
R2398,quijábamos,653,word,1,True,5,0.8548517227172852,2,
R2398,quijarían,654,word,1,True,5,0.7880728244781494,2,
R2398,cumpliríamos,655,word,2,True,5,0.8848879337310791,1,
R2398,chanraré,656,word,1,True,5,0.8381061553955078,2,
R2398,arderían,657,word,2,True,5,0.9578249454498291,1,
R2398,sauaremos,658,word,1,True,5,0.6729867458343506,2,
R2398,obrará,659,word,2,True,5,0.7808771133422852,1,
R2398,lameríamos,660,word,2,True,5,0.7230360507965088,1,
R2398,maftarían,661,word,1,True,5,0.7978081703186035,2,
R2398,pavarán,662,word,1,True,5,0.7187988758087158,2,
R2398,subirán,663,word,2,True,5,0.8428099155426025,1,
R2398,runábamos,664,word,1,True,5,0.940842866897583,2,
R2398,faltarían,665,word,2,True,5,0.6933639049530029,1,
R2398,frinderán,666,word,1,True,5,1.447021245956421,2,
R2398,prendíamos,667,word,2,True,5,0.6104598045349121,1,
R2398,charlaría,668,word,1,False,5,0.8535292148590088,1,
R2398,cetíamos,669,word,1,True,5,2.2728729248046875,2,
R2398,tujiría,670,word,1,True,5,1.3609108924865723,2,
R2398,zusaré,671,word,1,True,5,0.6359620094299316,2,
R2398,prendería,672,word,2,True,5,0.701995849609375,1,
R2398,retarían,673,word,2,True,5,0.7889010906219482,1,
R2398,luntirían,674,word,1,True,5,1.7817158699035645,2,
R2398,prenderá,675,word,2,True,5,0.6189639568328857,1,
R2398,sauaré,676,word,1,True,5,0.6550710201263428,2,
R2398,chanraban,677,word,1,True,5,0.8850009441375732,2,
R2398,frindían,678,word,1,True,5,0.8390340805053711,2,
R2398,mardiré,679,word,1,True,5,0.700005054473877,2,
R2398,meterás,680,word,2,True,5,0.7699980735778809,1,
R2398,cederá,681,word,2,True,5,0.9800150394439697,1,
R2398,frindíamos,682,word,1,True,5,0.760998010635376,2,
R2398,sumarían,683,word,2,True,5,0.7760481834411621,1,
R2398,cichirá,684,word,1,True,5,0.6940200328826904,2,
R2398,juraré,685,word,2,True,5,0.849963903427124,1,
R2398,cichiríamos,686,word,1,True,5,0.6800968647003174,2,
R2398,cubriré,687,word,2,True,5,0.7690191268920898,1,
R2398,cetaban,688,word,1,True,5,0.6960549354553223,2,
R2398,narraremos,689,word,2,True,5,0.7749791145324707,1,
R2398,someremos,690,word,1,True,5,0.6709258556365967,2,
R2398,burraban,691,word,1,True,5,0.7777490615844727,2,
R2398,cisabas,692,word,1,True,5,0.8238561153411865,2,
R2398,cubría,693,word,2,True,5,0.7898938655853271,1,
R2398,partiremos,694,word,2,True,5,1.030879020690918,1,
R2398,cichirán,695,word,1,True,5,0.8210239410400391,2,
R2398,bailarías,696,word,2,True,5,1.3237202167510986,1,
R2398,maftaba,697,word,1,True,5,0.7798991203308105,2,
R2398,bimarás,698,word,1,True,5,0.7410118579864502,2,
R2398,faneré,699,word,1,True,5,0.7280356884002686,2,
R2398,runarán,700,word,1,True,5,0.8186960220336914,2,
R2398,fanerán,701,word,1,True,5,0.8920261859893799,2,
R2398,obraríamos,702,word,2,True,5,0.7027692794799805,1,
R2398,meterán,703,word,2,True,5,0.962939977645874,1,
R2398,ardían,704,word,2,True,5,1.068087100982666,1,
R2398,maftarías,705,word,1,True,5,0.7679359912872314,2,
R2398,rotarían,706,word,2,True,5,1.7047438621520996,1,
R2398,seseré,707,word,1,True,5,0.815040111541748,2,
R2398,quemarán,708,word,2,True,5,0.8419709205627441,1,
R2398,cisaría,709,word,1,True,5,0.6379489898681641,2,
R2398,charlaremos,710,word,2,True,5,1.1399452686309814,1,
R2398,rondarán,711,word,2,True,5,1.0428411960601807,1,
R2398,cisarán,712,word,1,True,5,0.9748940467834473,2,
R2398,focaríamos,713,word,1,True,5,1.2778429985046387,2,
R2398,hondíamos,714,word,1,True,5,0.7818360328674316,2,
R2398,temerá,715,word,2,True,5,0.6669461727142334,1,
R2398,tujiremos,716,word,1,True,5,0.765887975692749,2,
R2398,retaremos,717,word,2,True,5,0.8896529674530029,1,
R2398,quijarías,718,word,1,True,5,0.6699120998382568,2,
R2398,ceflerás,719,word,1,True,5,1.223970651626587,2,
R2398,sesería,720,word,1,True,5,0.8829402923583984,2,
R2398,besabas,721,word,2,True,5,0.678062915802002,1,
R2398,vendería,722,word,2,True,5,0.8430440425872803,1,
R2398,faltarán,723,word,2,True,5,1.6259040832519531,1,
R2398,temeremos,724,word,2,True,5,0.7039468288421631,1,
R2398,sindaría,725,word,1,True,5,0.6560602188110352,2,
R2398,riterán,726,word,1,True,5,0.6619999408721924,2,
R2398,faneremos,727,word,1,True,5,0.6465318202972412,2,
R2398,sindarían,728,word,1,True,5,0.6799399852752686,2,
R2398,rimaré,729,word,2,True,5,0.750068187713623,1,
R2398,partiría,730,word,2,True,5,0.643082857131958,1,
R2398,nadábamos,731,word,2,True,5,0.8070611953735352,1,
R2398,corríamos,732,word,2,True,5,0.7209649085998535,1,
R2398,venderemos,733,word,2,True,5,0.7020039558410645,1,
R2398,venderán,734,word,2,True,5,0.5829787254333496,1,
R2398,ceflerán,735,word,1,True,5,0.7201361656188965,2,
R2398,fundirían,736,word,1,False,5,0.8597283363342285,1,
R2398,formabas,737,word,2,True,5,0.9769802093505859,1,
R2398,honderíamos,738,word,1,True,5,0.8599820137023926,2,
R2398,galaremos,739,word,1,True,5,0.6649031639099121,2,
R2398,quijará,740,word,1,True,5,0.7058088779449463,2,
R2398,runaremos,741,word,1,True,5,0.6609969139099121,2,
R2398,galarían,742,word,1,True,5,0.6509599685668945,2,
R2398,nadaríamos,743,word,2,True,5,0.6349508762359619,1,
R2398,cenaban,744,word,2,True,5,1.1659109592437744,1,
R2398,comerá,745,word,2,True,5,0.5608909130096436,1,
R2398,unirá,746,word,2,True,5,0.5088698863983154,1,
R2398,luntiremos,747,word,1,True,5,0.7187237739562988,2,
R2398,barreré,748,word,2,True,5,0.875769853591919,1,
R2398,eplabas,749,word,1,True,5,0.7538669109344482,2,
R2398,obraría,750,word,2,True,5,0.708834171295166,1,
R2398,tuplirían,751,word,1,True,5,0.7769970893859863,2,
R2398,rotábamos,752,word,2,True,5,1.511052131652832,1,
R2398,obraban,753,word,2,True,5,0.656954288482666,1,
R2398,bruvirán,754,word,1,True,5,0.7939891815185547,2,
R2398,burrarás,755,word,1,True,5,0.7826840877532959,2,
R2398,cederían,756,word,2,True,5,0.9539210796356201,1,
R2398,cuarrirían,757,word,1,True,5,0.7319388389587402,2,
R2398,galarás,758,word,1,True,5,0.7809810638427734,2,
R2398,retaba,759,word,2,True,5,0.8657920360565186,1,
R2398,coseré,760,word,2,True,5,0.6920480728149414,1,
R2398,rotará,761,word,2,True,5,0.9491147994995117,1,
R2398,zusarías,762,word,1,True,5,0.8289279937744141,2,
R2398,toseré,763,word,2,True,5,0.7788312435150146,1,
R2398,ciperíamos,764,word,1,True,5,0.7729358673095703,2,
R2398,honderá,765,word,1,True,5,3.069988250732422,2,
R2398,rondaríamos,766,word,1,False,5,2.3901960849761963,1,
R2398,frindía,767,word,1,True,5,0.9339809417724609,2,
R2398,venderíamos,768,word,2,True,5,1.5629642009735107,1,
R2398,cortábamos,769,word,2,True,5,0.7767820358276367,1,
R2398,frinderás,770,word,1,True,5,0.9419112205505371,2,
R2398,imiré,771,word,1,True,5,0.8260829448699951,2,
R2398,rimarían,772,word,2,True,5,0.7239623069763184,1,
R2398,bailaremos,773,word,2,True,5,0.681725025177002,1,
R2398,ritía,774,word,1,True,5,0.8848459720611572,2,
R2398,tuplías,775,word,1,True,5,0.6548871994018555,2,
R2398,correrías,776,word,2,True,5,0.7080488204956055,1,
R2398,sumaré,777,word,2,True,5,0.6640288829803467,1,
R2398,quemaban,778,word,2,True,5,0.7488551139831543,1,
R2398,frinderíamos,779,word,1,True,5,0.6880481243133545,2,
R2398,subiría,780,word,2,True,5,0.7760190963745117,1,
R2398,bigarían,781,word,1,True,6,1.2847633361816406,2,
R2398,mertarás,782,word,1,True,6,1.0398321151733398,2,
R2398,eplaré,783,word,1,True,6,1.3289799690246582,2,
R2398,juraríamos,784,word,2,True,6,0.8400189876556396,1,
R2398,gachará,785,word,1,True,6,0.615962028503418,2,
R2398,pavaba,786,word,1,True,6,1.1879260540008545,2,
R2398,mardiría,787,word,1,True,6,1.2219619750976562,2,
R2398,tujiré,788,word,1,True,6,0.7299201488494873,2,
R2398,obraré,789,word,2,True,6,0.7730507850646973,1,
R2398,bailábamos,790,word,2,True,6,0.6950438022613525,1,
R2398,quemará,791,word,2,True,6,1.3088319301605225,1,
R2398,fanían,792,word,1,True,6,1.2939467430114746,2,
R2398,burraré,793,word,1,True,6,1.00295090675354,2,
R2398,pavaría,794,word,1,True,6,0.6210579872131348,2,
R2398,poreré,795,word,1,True,6,1.8500750064849854,2,
R2398,charlará,796,word,2,True,6,1.1849441528320312,1,
R2398,subirían,797,word,2,True,6,0.9437799453735352,1,
R2398,formábamos,798,word,2,True,6,1.8289170265197754,1,
R2398,sufrirían,799,word,2,True,6,0.9849741458892822,1,
R2398,rotaba,800,word,2,True,6,0.9871320724487305,1,
R2398,ciperías,801,word,1,True,6,1.47090482711792,2,
R2398,cedería,802,word,2,True,6,0.7192177772521973,1,
R2398,tujirá,803,word,1,True,6,0.7339179515838623,2,
R2398,ceterás,804,word,1,True,6,0.7840580940246582,2,
R2398,partiríamos,805,word,2,True,6,0.7391037940979004,1,
R2398,tuplirás,806,word,1,True,6,1.6398520469665527,2,
R2398,cederás,807,word,2,True,6,1.7859129905700684,1,
R2398,retarías,808,word,2,True,6,1.0148200988769531,1,
R2398,cenabas,809,word,2,True,6,1.381824016571045,1,
R2398,galaban,810,word,1,True,6,0.6619148254394531,2,
R2398,subían,811,word,2,True,6,0.6980650424957275,1,
R2398,vultaríamos,812,word,1,True,6,0.8279900550842285,2,
R2398,cortabas,813,word,2,True,6,0.8208208084106445,1,
R2398,nadaban,814,word,2,True,6,0.9817829132080078,1,
R2398,faltaba,815,word,2,True,6,0.7078487873077393,1,
R2398,nadarás,816,word,2,True,6,0.6410050392150879,1,
R2398,jurará,817,word,2,True,6,0.6449971199035645,1,
R2398,subiremos,818,word,2,True,6,0.6490070819854736,1,
R2398,obrarás,819,word,2,True,6,0.5790939331054688,1,
R2398,tujirás,820,word,1,True,6,0.9740617275238037,2,
R2398,lailabas,821,word,1,True,6,1.9146921634674072,2,
R2398,quemabas,822,word,2,True,6,1.6657910346984863,1,
R2398,barreríamos,823,word,2,True,6,1.2749300003051758,1,
R2398,riteré,824,word,1,True,6,0.6370277404785156,2,
R2398,rotaríamos,825,word,2,True,6,0.6789469718933105,1,
R2398,partiré,826,word,2,True,6,1.8260061740875244,1,
R2398,charlabas,827,word,2,True,6,0.9680461883544922,1,
R2398,burraríamos,828,word,1,True,6,0.9488117694854736,2,
R2398,coseríamos,829,word,2,True,6,1.4979450702667236,1,
R2398,besaré,830,word,2,True,6,0.7570440769195557,1,
R2398,gachábamos,831,word,1,True,6,0.8108043670654297,2,
R2398,luntirías,832,word,1,True,6,0.8300962448120117,2,
R2398,fanerás,833,word,1,True,6,1.1670148372650146,2,
R2398,formaba,834,word,2,True,6,1.0563600063323975,1,
R2398,tujiríamos,835,word,1,True,6,1.0999691486358643,2,
R2398,rotabas,836,word,2,True,6,0.6629879474639893,1,
R2398,quemarían,837,word,2,True,6,1.0629191398620605,1,
R2398,cubrirá,838,word,2,True,6,0.6549251079559326,1,
R2398,lucharás,839,word,2,True,6,0.642005205154419,1,
R2398,vendían,840,word,2,True,6,0.6419987678527832,1,
R2398,anrerá,841,word,1,True,6,0.9460170269012451,2,
R2398,sauarás,842,word,1,True,6,0.7720718383789062,2,
R2398,cubriríamos,843,word,2,True,6,0.9478089809417725,1,
R2398,rayaríamos,844,word,2,True,6,0.6309609413146973,1,
R2398,partirían,845,word,2,True,6,0.7718791961669922,1,
R2398,cuarrirán,846,word,1,True,6,0.9778358936309814,2,
R2398,besará,847,word,2,True,6,0.619765043258667,1,
R2398,coserías,848,word,2,True,6,0.6324779987335205,1,
R2398,pactaría,849,word,2,True,6,0.7679901123046875,1,
R2398,tujías,850,word,1,True,6,0.6339139938354492,2,
R2398,venderá,851,word,2,True,6,0.6451570987701416,1,
R2398,mardían,852,word,1,True,6,0.812995195388794,2,
R2398,cosía,853,word,2,True,6,0.5748989582061768,1,
R2398,retarán,854,word,2,True,6,1.198033094406128,1,
R2398,frinderé,855,word,1,True,6,0.8128130435943604,2,
R2398,somerían,856,word,1,True,6,1.51987886428833,2,
R2398,meteré,857,word,2,True,6,0.7923200130462646,1,
R2398,eplarías,858,word,1,True,6,0.5990610122680664,2,
R2398,lacherías,859,word,1,True,6,0.6210010051727295,2,
R2398,comerán,860,word,2,True,6,0.7219798564910889,1,
R2398,formará,861,word,2,True,6,2.510045051574707,1,
R2398,bigaban,862,word,1,True,6,0.6180300712585449,2,
R2398,mertarías,863,word,1,True,6,0.8700511455535889,2,
R2398,retaré,864,word,2,True,6,0.9130539894104004,1,
R2398,ceflían,865,word,1,True,6,0.621056079864502,2,
R2398,galará,866,word,1,True,6,0.6259541511535645,2,
R2398,besarían,867,word,2,True,6,0.6159529685974121,1,
R2398,cetarías,868,word,1,True,6,0.7121031284332275,2,
R2398,sufrirá,869,word,2,True,6,0.7168090343475342,1,
R2398,subiríamos,870,word,2,True,6,0.6248400211334229,1,
R2398,mordería,871,word,2,True,6,0.791898250579834,1,
R2398,maftarás,872,word,1,True,6,0.7369539737701416,2,
R2398,lachía,873,word,1,True,6,0.8569409847259521,2,
R2398,rimaría,874,word,2,True,6,0.7511301040649414,1,
R2398,moncería,875,word,1,True,6,0.8209559917449951,2,
R2398,focaré,876,word,1,True,6,0.6970069408416748,2,
R2398,pactaríamos,877,word,1,False,6,0.7120077610015869,1,
R2398,bigaremos,878,word,1,True,6,0.8843257427215576,2,
R2398,barrería,879,word,1,False,6,1.3959901332855225,1,
R2398,fanería,880,word,1,True,6,1.7023999691009521,2,
R2398,meteremos,881,word,2,True,6,0.5950460433959961,1,
R2398,bruvían,882,word,1,True,6,0.6029391288757324,2,
R2398,rondaremos,883,word,1,False,6,0.9068207740783691,1,
R2398,cipíamos,884,word,1,True,6,0.7057909965515137,2,
R2398,nadaría,885,word,2,True,6,0.801084041595459,1,
R2398,faneríamos,886,word,1,True,6,0.9960429668426514,2,
R2398,lucharíamos,887,word,2,True,6,0.9664931297302246,1,
R2398,metía,888,word,2,True,6,1.0440318584442139,1,
R2398,bruvía,889,word,1,True,6,1.5630319118499756,2,
R2398,juraba,890,word,2,True,6,1.1281578540802002,1,
R2398,lamían,891,word,2,True,6,2.5181667804718018,1,
R2398,vultarán,892,word,1,True,6,1.0269687175750732,2,
R2398,mertaré,893,word,1,True,6,0.8088741302490234,2,
R2398,bailaban,894,word,2,True,6,0.6719400882720947,1,
R2398,lorgabas,895,word,1,True,6,1.1049656867980957,2,
R2398,lucharías,896,word,2,True,6,0.5580439567565918,1,
R2398,runabas,897,word,1,True,6,1.0099780559539795,2,
R2398,imirás,898,word,1,True,6,0.6210448741912842,2,
R2398,gacharían,899,word,1,True,6,0.7388038635253906,2,
R2398,lucharían,900,word,2,True,6,0.7429080009460449,1,
R2398,cederías,901,word,2,True,6,0.7719931602478027,1,
R2398,casará,902,word,2,True,6,0.6069357395172119,1,
R2398,ceterían,903,word,1,True,6,0.6968648433685303,2,
R2398,cichía,904,word,1,True,6,0.6558678150177002,2,
R2398,fundiremos,905,word,1,False,6,0.682952880859375,1,
R2398,cubrirían,906,word,2,True,6,0.6590049266815186,1,
R2398,rimarás,907,word,2,True,6,1.088944911956787,1,
R2398,imía,908,word,1,True,6,0.8089981079101562,2,
R2398,runaré,909,word,1,True,6,1.3529741764068604,2,
R2398,cenaría,910,word,2,True,6,1.0770180225372314,1,
R2398,cisaremos,911,word,1,True,6,0.9209201335906982,2,
R2398,cetaría,912,word,1,True,6,1.0770220756530762,2,
R2398,cederemos,913,word,2,True,6,0.76399827003479,1,
R2398,cenarían,914,word,2,True,6,0.8750910758972168,1,
R2398,fundirá,915,word,1,False,6,1.4749891757965088,1,
R2398,galaré,916,word,1,True,6,0.6460680961608887,2,
R2398,chanrarás,917,word,1,True,6,0.7557871341705322,2,
R2398,zusarían,918,word,1,True,6,0.6329131126403809,2,
R2398,cuarriremos,919,word,1,True,6,0.8589379787445068,2,
R2398,lailarían,920,word,1,True,6,1.4072370529174805,2,
R2398,sufriremos,921,word,2,True,6,0.6879339218139648,1,
R2398,chanraba,922,word,1,True,6,0.9200389385223389,2,
R2398,sumarás,923,word,2,True,6,0.8559300899505615,1,
R2398,cubrían,924,word,2,True,6,1.242825984954834,1,
R2398,porerás,925,word,1,True,6,0.6822090148925781,2,
R2398,sumará,926,word,2,True,6,0.7078719139099121,1,
R2398,runaría,927,word,1,True,6,1.1818828582763672,2,
R2398,nadarán,928,word,2,True,6,0.6450610160827637,1,
R2398,eplaríamos,929,word,1,True,6,0.9759831428527832,2,
R2398,ceflía,930,word,1,True,6,0.6670079231262207,2,
R2398,casarán,931,word,2,True,6,0.7460451126098633,1,
R2398,bruviríamos,932,word,1,True,6,0.7280027866363525,2,
R2398,cumpliré,933,word,2,True,6,0.8599178791046143,1,
R2398,correrá,934,word,2,True,6,0.8300888538360596,1,
R2398,fundían,935,word,1,False,6,1.0019183158874512,1,
R2398,prenderemos,936,word,2,True,6,0.8031020164489746,1,
R2398,pavarías,937,word,1,True,7,2.3559131622314453,2,
R2398,imirían,938,word,1,True,7,0.8469588756561279,2,
R2398,cedían,939,word,2,True,7,1.235975980758667,1,
R2398,gachaba,940,word,1,True,7,1.28102707862854,2,
R2398,quemaríamos,941,word,2,True,7,1.0040092468261719,1,
R2398,focarían,942,word,1,True,7,2.0620028972625732,2,
R2398,cichirías,943,word,1,True,7,1.9000089168548584,2,
R2398,luntiríamos,944,word,1,True,7,1.2729229927062988,2,
R2398,maftará,945,word,1,True,7,0.693795919418335,2,
R2398,anrerán,946,word,1,True,7,1.6259791851043701,2,
R2398,seseríamos,947,word,2,False,7,2.5057880878448486,2,
R2398,bailaría,948,word,2,True,7,0.9989070892333984,1,
R2398,bruvirás,949,word,1,True,7,0.7478611469268799,2,
R2398,uniré,950,word,2,True,7,1.0301270484924316,1,
R2398,cortaremos,951,word,2,True,7,1.2368991374969482,1,
R2398,toserán,952,word,2,True,7,0.6340439319610596,1,
R2398,jurábamos,953,word,2,True,7,0.5729351043701172,1,
R2398,lamerán,954,word,2,True,7,0.5496461391448975,1,
R2398,nadaba,955,word,2,True,7,0.5240259170532227,1,
R2398,tuplirías,956,word,1,True,7,0.6469981670379639,2,
R2398,seserían,957,word,1,True,7,2.674916982650757,2,
R2398,fanía,958,word,1,True,7,1.1419670581817627,2,
R2398,frinderá,959,word,1,True,7,0.7978119850158691,2,
R2398,lamíamos,960,word,2,True,7,0.7499110698699951,1,
R2398,faníamos,961,word,1,True,7,0.7599799633026123,2,
R2398,cetían,962,word,1,True,7,0.7081050872802734,2,
R2398,rayarás,963,word,2,True,7,0.7379331588745117,1,
R2398,monceré,964,word,1,True,7,0.5960781574249268,2,
R2398,nadarían,965,word,2,True,7,0.7329821586608887,1,
R2398,temerían,966,word,2,True,7,0.6651778221130371,1,
R2398,casaban,967,word,2,True,7,0.6899571418762207,1,
R2398,cenaríamos,968,word,2,True,7,0.6852021217346191,1,
R2398,mardirá,969,word,1,True,7,0.66802978515625,2,
R2398,sauarían,970,word,1,True,7,0.6509449481964111,2,
R2398,sufría,971,word,2,True,7,0.6368880271911621,1,
R2398,correríamos,972,word,2,True,7,0.61397385597229,1,
R2398,lacheré,973,word,1,True,7,0.5919959545135498,2,
R2398,maftaríamos,974,word,1,True,7,0.7409701347351074,2,
R2398,bruvíamos,975,word,1,True,7,0.8999850749969482,2,
R2398,cuarrirás,976,word,1,True,7,0.6059019565582275,2,
R2398,morderá,977,word,2,True,7,0.6478619575500488,1,
R2398,toserías,978,word,2,True,7,0.5990421772003174,1,
R2398,lacherán,979,word,1,True,7,0.6319522857666016,2,
R2398,pactabas,980,word,1,False,7,0.6058809757232666,1,
R2398,bigarás,981,word,1,True,7,0.7128889560699463,2,
R2398,cichirás,982,word,1,True,7,1.3460161685943604,2,
R2398,lorgarán,983,word,1,True,7,0.7618758678436279,2,
R2398,cosías,984,word,2,True,7,0.600985050201416,1,
R2398,cefleríamos,985,word,1,True,7,0.7501609325408936,2,
R2398,rondarían,986,word,1,False,7,1.5920188426971436,1,
R2398,jurarán,987,word,2,True,7,0.8240211009979248,1,
R2398,pavabas,988,word,1,True,7,0.9472568035125732,2,
R2398,bailaba,989,word,2,True,7,0.5762159824371338,1,
R2398,rayaba,990,word,2,True,7,0.5792648792266846,1,
R2398,cetábamos,991,word,1,True,7,0.9583930969238281,2,
R2398,eplarás,992,word,1,True,7,0.8012096881866455,2,
R2398,comía,993,word,2,True,7,0.5913102626800537,1,
R2398,rayarían,994,word,2,True,7,0.6441788673400879,1,
R2398,comeríamos,995,word,2,True,7,1.1573309898376465,1,
R2398,retábamos,996,word,2,True,7,0.7863190174102783,1,
R2398,pactaremos,997,word,2,True,7,0.7831931114196777,1,
R2398,cisaban,998,word,1,True,7,0.667248010635376,2,
R2398,zusaremos,999,word,1,True,7,0.7392199039459229,2,
R2398,quemaba,1000,word,2,True,7,0.670001745223999,1,
R2398,jurarás,1001,word,2,True,7,0.6422929763793945,1,
R2398,cumpliremos,1002,word,2,True,7,0.560399055480957,1,
R2398,rimábamos,1003,word,2,True,7,0.6163668632507324,1,
R2398,bimabas,1004,word,1,True,7,0.7560651302337646,2,
R2398,rimaremos,1005,word,2,True,7,0.8922998905181885,1,
R2398,arderá,1006,word,2,True,7,0.9147100448608398,1,
R2398,anrerás,1007,word,1,True,7,0.8724427223205566,2,
R2398,moncían,1008,word,1,True,7,0.8628401756286621,2,
R2398,quemaría,1009,word,2,True,7,0.8706529140472412,1,
R2398,ardíamos,1010,word,2,True,7,1.6702661514282227,1,
R2398,focaba,1011,word,1,True,7,0.747715950012207,2,
R2398,eplaría,1012,word,1,True,7,0.6727879047393799,2,
R2398,somías,1013,word,1,True,7,0.7680480480194092,2,
R2398,vultaré,1014,word,1,True,7,0.6529679298400879,2,
R2398,tujirías,1015,word,1,True,7,0.6947982311248779,2,
R2398,riterían,1016,word,1,True,7,0.7448289394378662,2,
R2398,ritería,1017,word,1,True,7,0.596031904220581,2,
R2398,metería,1018,word,2,True,7,0.7868261337280273,1,
R2398,venderé,1019,word,2,True,7,1.4730970859527588,1,
R2398,monceríamos,1020,word,1,True,7,0.7929880619049072,2,
R2398,sindaremos,1021,word,1,True,7,0.6109287738800049,2,
R2398,toserás,1022,word,2,True,7,0.7627708911895752,1,
R2398,runará,1023,word,1,True,7,0.737835168838501,2,
R2398,besaríamos,1024,word,2,True,7,0.7519757747650146,1,
R2398,cetabas,1025,word,1,True,7,0.634023904800415,2,
R2398,cefleré,1026,word,1,True,7,0.6999380588531494,2,
R2398,poría,1027,word,1,True,7,1.3018460273742676,2,
R2398,lorgaría,1028,word,1,True,7,1.0699090957641602,2,
R2398,quemarías,1029,word,2,True,7,0.8523869514465332,1,
R2398,fundíamos,1030,word,1,False,7,1.0928547382354736,1,
R2398,mordíamos,1031,word,2,True,7,1.765075922012329,1,
R2398,temías,1032,word,2,True,7,1.4709820747375488,1,
R2398,lameremos,1033,word,2,True,7,1.1160740852355957,1,
R2398,comerían,1034,word,2,True,7,0.6757230758666992,1,
R2398,venderás,1035,word,2,True,7,1.033931016921997,1,
R2398,pactábamos,1036,word,2,True,7,1.052987813949585,1,
R2398,comerías,1037,word,2,True,7,0.942033052444458,1,
R2398,cetarán,1038,word,1,True,7,0.8460419178009033,2,
R2398,temíamos,1039,word,2,True,7,0.9270012378692627,1,
R2398,sufriré,1040,word,2,True,7,1.051154375076294,1,
R2398,fundiríamos,1041,word,1,False,7,1.8258960247039795,1,
R2398,bimarán,1042,word,1,True,7,1.0099122524261475,2,
R2398,bailabas,1043,word,2,True,7,0.687777042388916,1,
R2398,bimarías,1044,word,1,True,7,0.685927152633667,2,
R2398,mardía,1045,word,1,True,7,0.9435901641845703,2,
R2398,luchabas,1046,word,2,True,7,0.7208011150360107,1,
R2398,quijaré,1047,word,1,True,7,1.5409648418426514,2,
R2398,cuarrirá,1048,word,1,True,7,0.6778368949890137,2,
R2398,cichían,1049,word,1,True,7,0.7127728462219238,2,
R2398,gruñíamos,1050,word,2,True,7,0.8599700927734375,1,
R2398,lachías,1051,word,1,True,7,0.8168492317199707,2,
R2398,lachían,1052,word,1,True,7,0.7539494037628174,2,
R2398,cisaríamos,1053,word,1,True,7,0.9230010509490967,2,
R2398,partirán,1054,word,2,True,7,1.2368881702423096,1,
R2398,tujía,1055,word,p,False,7,136.44127702713013,2,
R2398,prenderías,1056,word,2,True,7,1.6039049625396729,1,
R2398,gachabas,1057,word,1,True,7,0.8128502368927002,2,
R2398,luntías,1058,word,1,True,7,2.7819912433624268,2,
R2398,bruviré,1059,word,1,True,7,1.0888950824737549,2,
R2398,besábamos,1060,word,2,True,7,0.7960021495819092,1,
R2398,juraremos,1061,word,2,True,7,2.449120044708252,1,
R2398,cetarían,1062,word,1,True,7,1.8571860790252686,2,
R2398,metían,1063,word,1,False,7,0.21307897567749023,1,
R2398,vultará,1064,word,1,True,7,2.3254079818725586,2,
R2398,vultarías,1065,word,1,True,7,1.1389739513397217,2,
R2398,zusarás,1066,word,1,True,7,1.420015811920166,2,
R2398,lailará,1067,word,1,True,7,2.1077370643615723,2,
R2398,lacherá,1068,word,1,True,7,0.8620400428771973,2,
R2398,rayará,1069,word,2,True,7,1.0178911685943604,1,
R2398,nadaremos,1070,word,2,True,7,0.7070727348327637,1,
R2398,obraremos,1071,word,2,True,7,0.7218520641326904,1,
R2398,fanerá,1072,word,1,True,7,0.7121062278747559,2,
R2398,chanrará,1073,word,1,True,7,1.0932879447937012,2,
R2398,bruvirían,1074,word,1,True,7,0.8473160266876221,2,
R2398,gruñirá,1075,word,2,True,7,0.7979629039764404,1,
R2398,bruviría,1076,word,1,True,7,1.1629600524902344,2,
R2398,eplaba,1077,word,1,True,7,1.7279150485992432,2,
R2398,lorgábamos,1078,word,1,True,7,2.3796489238739014,2,
R2398,bimaría,1079,word,1,True,7,0.7128047943115234,2,
R2398,cisábamos,1080,word,1,True,7,0.6858141422271729,2,
R2398,gacharías,1081,word,1,True,7,0.7619569301605225,2,
R2398,bruviremos,1082,word,1,True,7,0.7160289287567139,2,
R2398,lorgaremos,1083,word,1,True,7,0.7647829055786133,2,
R2398,formaban,1084,word,2,True,7,1.233001947402954,1,
R2398,bigaba,1085,word,1,True,7,0.6729452610015869,2,
R2398,sindaban,1086,word,1,True,7,0.8828418254852295,2,
R2398,porerían,1087,word,p,False,7,151.3027880191803,2,
R2398,mertaban,1088,word,1,True,7,0.8578970432281494,2,
R2398,quemábamos,1089,word,2,True,7,1.0198290348052979,1,
R2398,cipían,1090,word,1,True,7,1.4190051555633545,2,
R2398,bailaré,1091,word,2,True,7,1.2589352130889893,1,
R2398,mardías,1092,word,1,True,7,1.5289020538330078,2,
