participant,stimuli,trialNum,target_type,response,correct,block,reaction_time,trigger,
R2408,porerías,1,word,2,False,1,0.9870591163635254,2,
R2408,luntíamos,2,word,1,True,1,0.8569631576538086,2,
R2408,porerá,3,word,2,False,1,0.5720999240875244,2,
R2408,cosíamos,4,word,1,False,1,0.8458852767944336,1,
R2408,formará,5,word,2,True,1,0.8488657474517822,1,
R2408,cichías,6,word,1,True,1,0.7306609153747559,2,
R2408,morderán,7,word,2,True,1,0.8939859867095947,1,
R2408,sumabas,8,word,1,False,1,0.8498330116271973,1,
R2408,lailábamos,9,word,2,False,1,1.2050659656524658,2,
R2408,narraban,10,word,1,False,1,1.3518669605255127,1,
R2408,chanrarías,11,word,2,False,1,1.8068420886993408,2,
R2408,lorgarías,12,word,2,False,1,1.5179028511047363,2,
R2408,porería,13,word,2,False,1,1.1558830738067627,2,
R2408,sufrías,14,word,2,True,1,0.7268893718719482,1,
R2408,comerás,15,word,2,True,1,0.6210808753967285,1,
R2408,lameríamos,16,word,2,True,1,1.6109099388122559,1,
R2408,quijabas,17,word,1,True,1,0.6379408836364746,2,
R2408,nadaba,18,word,2,True,1,0.8498022556304932,1,
R2408,arderé,19,word,2,True,1,0.9337978363037109,1,
R2408,frinderías,20,word,1,True,1,1.0099682807922363,2,
R2408,riterás,21,word,1,True,1,0.8779258728027344,2,
R2408,chanrarían,22,word,2,False,1,1.6320610046386719,2,
R2408,morderemos,23,word,2,True,1,0.7159299850463867,1,
R2408,rondarán,24,word,1,False,1,0.7097387313842773,1,
R2408,besábamos,25,word,2,True,1,0.6520431041717529,1,
R2408,rayaríamos,26,word,1,False,1,1.365156888961792,1,
R2408,chanraba,27,word,1,True,1,1.4238531589508057,2,
R2408,sindará,28,word,2,False,1,0.7779641151428223,2,
R2408,venderíamos,29,word,2,True,1,0.7589638233184814,1,
R2408,rotaban,30,word,2,True,1,0.9759848117828369,1,
R2408,partiremos,31,word,2,True,1,0.7219557762145996,1,
R2408,gacharemos,32,word,1,True,1,0.780034065246582,2,
R2408,ciperíamos,33,word,1,True,1,0.8260869979858398,2,
R2408,comía,34,word,2,True,1,0.7278878688812256,1,
R2408,cichían,35,word,1,True,1,1.0808732509613037,2,
R2408,toserás,36,word,1,False,1,1.3669238090515137,1,
R2408,uniré,37,word,2,True,1,0.7500340938568115,1,
R2408,sauarán,38,word,1,True,1,1.2699029445648193,2,
R2408,metía,39,word,2,True,1,0.8370847702026367,1,
R2408,eplábamos,40,word,1,True,1,0.9670157432556152,2,
R2408,formaré,41,word,2,True,1,0.8500268459320068,1,
R2408,somerás,42,word,1,True,1,0.8659210205078125,2,
R2408,cubríamos,43,word,2,True,1,0.7828810214996338,1,
R2408,sauaremos,44,word,1,True,1,0.8260090351104736,2,
R2408,sauaré,45,word,1,True,1,1.0429561138153076,2,
R2408,besaremos,46,word,2,True,1,1.2859337329864502,1,
R2408,meterán,47,word,2,True,1,0.7299487590789795,1,
R2408,tosían,48,word,1,False,1,0.8699700832366943,1,
R2408,cenarán,49,word,2,True,1,1.3599538803100586,1,
R2408,retarán,50,word,2,True,1,0.8569400310516357,1,
R2408,rotarían,51,word,2,True,1,0.8789389133453369,1,
R2408,uniría,52,word,2,True,1,0.5963199138641357,1,
R2408,eplarían,53,word,1,True,1,0.7273530960083008,2,
R2408,anrerás,54,word,1,True,1,0.7859411239624023,2,
R2408,someríamos,55,word,2,False,1,0.6388280391693115,2,
R2408,cumpliría,56,word,2,True,1,1.395759105682373,1,
R2408,cichía,57,word,1,True,1,0.7008519172668457,2,
R2408,obraba,58,word,2,True,1,0.6958801746368408,1,
R2408,poría,59,word,2,False,1,0.5599532127380371,2,
R2408,eplaremos,60,word,1,True,1,0.6188831329345703,2,
R2408,cetará,61,word,1,True,1,1.2179841995239258,2,
R2408,barreremos,62,word,2,True,1,1.3327648639678955,1,
R2408,runaba,63,word,1,True,1,1.205094814300537,2,
R2408,cuarría,64,word,2,False,1,1.413970947265625,2,
R2408,sauará,65,word,1,True,1,1.3681879043579102,2,
R2408,gacharán,66,word,1,True,1,0.7039549350738525,2,
R2408,gruñirás,67,word,2,True,1,1.7208340167999268,1,
R2408,cumplirás,68,word,2,True,1,0.8309190273284912,1,
R2408,rayabas,69,word,2,True,1,1.5340039730072021,1,
R2408,correrá,70,word,2,True,1,0.7989890575408936,1,
R2408,unirá,71,word,2,True,1,0.9089717864990234,1,
R2408,eplará,72,word,1,True,1,0.7530272006988525,2,
R2408,lacheríamos,73,word,2,False,1,1.645787239074707,2,
R2408,pactarás,74,word,1,False,1,2.410776138305664,1,
R2408,ardías,75,word,2,True,1,0.664071798324585,1,
R2408,runarían,76,word,2,False,1,0.8937501907348633,2,
R2408,luntirán,77,word,1,True,1,0.713878870010376,2,
R2408,cetían,78,word,2,False,1,1.456240177154541,2,
R2408,unirías,79,word,2,True,1,0.5829780101776123,1,
R2408,lailarías,80,word,1,True,1,0.9768142700195312,2,
R2408,sindaban,81,word,1,True,1,1.8039343357086182,2,
R2408,coseríamos,82,word,2,True,1,1.0340139865875244,1,
R2408,casarías,83,word,2,True,1,0.6210811138153076,1,
R2408,cisarás,84,word,1,True,1,0.7867729663848877,2,
R2408,rayaba,85,word,2,True,1,0.8588578701019287,1,
R2408,sufriría,86,word,2,True,1,0.6769230365753174,1,
R2408,unirían,87,word,2,True,1,0.5088851451873779,1,
R2408,barrerían,88,word,2,True,1,0.7800719738006592,1,
R2408,prendía,89,word,2,True,1,0.6909029483795166,1,
R2408,sumarás,90,word,2,True,1,0.6743698120117188,1,
R2408,imías,91,word,1,True,1,1.4520881175994873,2,
R2408,rimarían,92,word,1,False,1,2.052772045135498,1,
R2408,fundiría,93,word,1,False,1,1.372032880783081,1,
R2408,charlarás,94,word,1,False,1,0.7879548072814941,1,
R2408,lameré,95,word,1,False,1,1.3209278583526611,1,
R2408,quijaría,96,word,1,True,1,1.5461461544036865,2,
R2408,maftaríamos,97,word,1,True,1,1.4009480476379395,2,
R2408,burrará,98,word,2,False,1,0.6708850860595703,2,
R2408,eplarías,99,word,1,True,1,0.8369710445404053,2,
R2408,gruñían,100,word,1,False,1,0.7440571784973145,1,
R2408,lorgarán,101,word,1,True,1,1.4678709506988525,2,
R2408,prenderíamos,102,word,2,True,1,0.6629481315612793,1,
R2408,cuarrirá,103,word,2,False,1,1.7979481220245361,2,
R2408,frinderán,104,word,1,True,1,1.3589839935302734,2,
R2408,sindarían,105,word,1,True,1,1.305804967880249,2,
R2408,zusarían,106,word,1,True,1,1.583489179611206,2,
R2408,fanerá,107,word,1,True,1,1.0219290256500244,2,
R2408,vultará,108,word,2,False,1,0.7177908420562744,2,
R2408,cisaban,109,word,1,True,1,0.907020092010498,2,
R2408,retaba,110,word,2,True,1,0.8910388946533203,1,
R2408,seserá,111,word,1,True,1,0.7810108661651611,2,
R2408,zusaría,112,word,1,True,1,0.9219729900360107,2,
R2408,ceflerás,113,word,1,True,1,0.8169858455657959,2,
R2408,comían,114,word,2,True,1,0.6560959815979004,1,
R2408,fanerás,115,word,1,True,1,1.2578191757202148,2,
R2408,moncerá,116,word,1,True,1,0.7989110946655273,2,
R2408,cetarás,117,word,1,True,1,0.7829837799072266,2,
R2408,gruñía,118,word,2,True,1,1.5687522888183594,1,
R2408,sesería,119,word,1,True,1,0.718052864074707,2,
R2408,retaremos,120,word,2,True,1,0.628803014755249,1,
R2408,cisaremos,121,word,1,True,1,0.6909928321838379,2,
R2408,anreremos,122,word,2,False,1,0.8861770629882812,2,
R2408,cetaremos,123,word,1,True,1,0.613062858581543,2,
R2408,runaremos,124,word,2,False,1,0.7591800689697266,2,
R2408,coserías,125,word,1,False,1,1.0170648097991943,1,
R2408,cederían,126,word,2,True,1,1.1258900165557861,1,
R2408,morderían,127,word,2,True,1,0.6440300941467285,1,
R2408,ceflíamos,128,word,1,True,1,0.7539641857147217,2,
R2408,sufríamos,129,word,2,True,1,0.8348286151885986,1,
R2408,bruviría,130,word,1,True,1,1.5818440914154053,2,
R2408,luchábamos,131,word,1,False,1,0.776885986328125,1,
R2408,fanían,132,word,1,True,1,0.846729040145874,2,
R2408,gacharían,133,word,1,True,1,0.7772150039672852,2,
R2408,ceflían,134,word,2,False,1,2.1059958934783936,2,
R2408,tujirá,135,word,1,True,1,0.6210451126098633,2,
R2408,mertaremos,136,word,2,False,1,0.7688708305358887,2,
R2408,sesían,137,word,1,True,1,0.9620711803436279,2,
R2408,lamías,138,word,1,False,1,0.8119168281555176,1,
R2408,sumarías,139,word,2,True,1,1.197937250137329,1,
R2408,sauarías,140,word,1,True,1,1.2748908996582031,2,
R2408,bigabas,141,word,1,True,1,0.850801944732666,2,
R2408,faneré,142,word,1,True,1,0.8218040466308594,2,
R2408,bailaría,143,word,2,True,1,0.9629898071289062,1,
R2408,arderemos,144,word,2,True,1,0.7249140739440918,1,
R2408,quijarán,145,word,2,False,1,1.409898042678833,2,
R2408,ceflerían,146,word,1,True,1,0.7749969959259033,2,
R2408,sauaba,147,word,1,True,1,0.8896257877349854,2,
R2408,besarías,148,word,2,True,1,1.1748497486114502,1,
R2408,lorgaría,149,word,1,True,1,1.7048969268798828,2,
R2408,cenarás,150,word,2,True,1,1.0159907341003418,1,
R2408,charlábamos,151,word,1,False,1,0.8489210605621338,1,
R2408,ardería,152,word,2,True,1,0.83091139793396,1,
R2408,ardía,153,word,2,True,1,1.4888150691986084,1,
R2408,correríamos,154,word,2,True,1,0.7720198631286621,1,
R2408,fanerías,155,word,1,True,1,0.7659449577331543,2,
R2408,vultarías,156,word,2,False,1,0.7477750778198242,2,
R2408,fanía,157,word,1,True,2,0.91982102394104,2,
R2408,correrás,158,word,2,True,2,0.636944055557251,1,
R2408,fundía,159,word,2,True,2,0.8780882358551025,1,
R2408,lucharás,160,word,2,True,2,0.603978157043457,1,
R2408,meteré,161,word,2,True,2,0.5508890151977539,1,
R2408,prendería,162,word,2,True,2,0.5981040000915527,1,
R2408,bruvirá,163,word,1,True,2,1.5110180377960205,2,
R2408,partiríamos,164,word,2,True,2,0.7429089546203613,1,
R2408,cederán,165,word,2,True,2,1.2180511951446533,1,
R2408,cubrirá,166,word,2,True,2,0.6587860584259033,1,
R2408,pavarán,167,word,1,True,2,1.0909020900726318,2,
R2408,anreríamos,168,word,2,False,2,0.8050801753997803,2,
R2408,cipería,169,word,1,True,2,0.6808681488037109,2,
R2408,juraban,170,word,2,True,2,0.8209378719329834,1,
R2408,lamía,171,word,2,True,2,0.5629408359527588,1,
R2408,burraré,172,word,1,True,2,0.937960147857666,2,
R2408,chanrarás,173,word,1,True,2,0.8769190311431885,2,
R2408,fundirías,174,word,2,True,2,0.6940321922302246,1,
R2408,burraría,175,word,2,False,2,0.6707770824432373,2,
R2408,pactábamos,176,word,2,True,2,1.2230651378631592,1,
R2408,imirán,177,word,2,False,2,1.5900490283966064,2,
R2408,cefleríamos,178,word,1,True,2,0.6878459453582764,2,
R2408,subían,179,word,2,True,2,0.6190211772918701,1,
R2408,bigarás,180,word,1,True,2,1.2098796367645264,2,
R2408,venderás,181,word,2,True,2,0.6402781009674072,1,
R2408,bigaría,182,word,1,True,2,0.7485177516937256,2,
R2408,cenaremos,183,word,2,True,2,0.619879961013794,1,
R2408,ardíamos,184,word,2,True,2,0.5989511013031006,1,
R2408,sindaré,185,word,1,True,2,0.7809679508209229,2,
R2408,quemaba,186,word,2,True,2,1.123344898223877,1,
R2408,cedía,187,word,1,False,2,1.1704611778259277,1,
R2408,rimábamos,188,word,1,False,2,1.530885934829712,1,
R2408,prendían,189,word,2,True,2,0.5740878582000732,1,
R2408,nadaban,190,word,2,True,2,0.6169617176055908,1,
R2408,galaría,191,word,2,False,2,0.7420139312744141,2,
R2408,cortarían,192,word,2,True,2,1.0779831409454346,1,
R2408,corríamos,193,word,2,True,2,0.5567758083343506,1,
R2408,cumplías,194,word,2,True,2,0.6139740943908691,1,
R2408,focaremos,195,word,2,False,2,0.9230289459228516,2,
R2408,ceterá,196,word,1,True,2,0.6489419937133789,2,
R2408,rondarían,197,word,2,True,2,1.0529937744140625,1,
R2408,besabas,198,word,2,True,2,0.6408829689025879,1,
R2408,temerán,199,word,1,False,2,1.0537209510803223,1,
R2408,riterá,200,word,1,True,2,1.7678589820861816,2,
R2408,retabas,201,word,2,True,2,0.6509530544281006,1,
R2408,rayará,202,word,2,True,2,0.6468567848205566,1,
R2408,maftarías,203,word,1,True,2,1.6899168491363525,2,
R2408,besaré,204,word,2,True,2,0.605025053024292,1,
R2408,rondaba,205,word,2,True,2,0.6823539733886719,1,
R2408,formarías,206,word,2,True,2,0.6489400863647461,1,
R2408,formarás,207,word,2,True,2,0.5291600227355957,1,
R2408,porías,208,word,2,False,2,0.646899938583374,2,
R2408,seseríamos,209,word,1,True,2,1.2699699401855469,2,
R2408,correrían,210,word,2,True,2,0.526155948638916,1,
R2408,ritería,211,word,1,True,2,1.243769645690918,2,
R2408,cipíamos,212,word,1,True,2,0.9427578449249268,2,
R2408,sindarán,213,word,1,True,2,1.1760551929473877,2,
R2408,cortabas,214,word,2,True,2,0.9158620834350586,1,
R2408,luchará,215,word,2,True,2,0.48091793060302734,1,
R2408,riterías,216,word,1,True,2,0.8858621120452881,2,
R2408,comeríamos,217,word,2,True,2,0.5770871639251709,1,
R2408,cortaríamos,218,word,2,True,2,0.6449038982391357,1,
R2408,vultaremos,219,word,2,False,2,0.6528267860412598,2,
R2408,cortarías,220,word,2,True,2,0.5419299602508545,1,
R2408,partirían,221,word,2,True,2,0.8969759941101074,1,
R2408,casarán,222,word,2,True,2,1.0038740634918213,1,
R2408,tupliré,223,word,1,True,2,0.5299818515777588,2,
R2408,besará,224,word,2,True,2,0.7259469032287598,1,
R2408,mertarás,225,word,1,True,2,1.2230198383331299,2,
R2408,faltarás,226,word,2,True,2,0.7008509635925293,1,
R2408,quijaríamos,227,word,1,True,2,0.9068939685821533,2,
R2408,gruñirían,228,word,1,False,2,0.8639938831329346,1,
R2408,cubriríamos,229,word,2,True,2,0.9910929203033447,1,
R2408,monceré,230,word,1,True,2,0.8388621807098389,2,
R2408,tosías,231,word,1,False,2,1.0890181064605713,1,
R2408,corrían,232,word,2,True,2,0.6188406944274902,1,
R2408,ceflería,233,word,1,True,2,0.7577850818634033,2,
R2408,cubrirás,234,word,2,True,2,0.7596879005432129,1,
R2408,cedían,235,word,1,False,2,0.9038739204406738,1,
R2408,cortará,236,word,2,True,2,0.7747631072998047,1,
R2408,narrarán,237,word,2,True,2,1.0322270393371582,1,
R2408,bruvirías,238,word,1,True,2,1.0649008750915527,2,
R2408,lorgará,239,word,2,False,2,0.8238930702209473,2,
R2408,seserán,240,word,1,True,2,0.789025068283081,2,
R2408,casaríamos,241,word,2,True,2,1.5087170600891113,1,
R2408,quemará,242,word,1,False,2,1.5909676551818848,1,
R2408,cubrirán,243,word,2,True,2,0.6251509189605713,1,
R2408,gachará,244,word,1,True,2,1.028031826019287,2,
R2408,ritían,245,word,1,True,2,1.3428552150726318,2,
R2408,uniremos,246,word,2,True,2,0.9548671245574951,1,
R2408,ceterías,247,word,1,True,2,1.1187031269073486,2,
R2408,rondarás,248,word,1,False,2,0.983860969543457,1,
R2408,poreríamos,249,word,2,False,2,0.6248660087585449,2,
R2408,lailaría,250,word,1,True,2,0.8660600185394287,2,
R2408,tujiremos,251,word,1,True,2,0.8559069633483887,2,
R2408,porerán,252,word,2,False,2,0.655829906463623,2,
R2408,metería,253,word,2,True,2,0.7678649425506592,1,
R2408,pavaba,254,word,1,True,2,0.9638280868530273,2,
R2408,juraremos,255,word,2,True,2,0.7799558639526367,1,
R2408,barrería,256,word,2,True,2,0.6959748268127441,1,
R2408,poreremos,257,word,2,False,2,0.6098558902740479,2,
R2408,cetarán,258,word,1,True,2,0.8580501079559326,2,
R2408,bruvía,259,word,1,True,2,1.2748918533325195,2,
R2408,ritía,260,word,1,True,2,0.688774824142456,2,
R2408,jurará,261,word,2,True,2,0.695958137512207,1,
R2408,maftaremos,262,word,1,True,2,0.7737331390380859,2,
R2408,focaba,263,word,2,False,2,0.6345319747924805,2,
R2408,tujíamos,264,word,1,True,2,0.6854369640350342,2,
R2408,nadábamos,265,word,2,True,2,0.664863109588623,1,
R2408,riterían,266,word,1,True,2,0.6749827861785889,2,
R2408,rotarías,267,word,2,True,2,0.6919460296630859,1,
R2408,comeré,268,word,2,True,2,0.8235189914703369,1,
R2408,pactaban,269,word,1,False,2,1.1239750385284424,1,
R2408,temeré,270,word,2,True,2,1.4769871234893799,1,
R2408,cosías,271,word,1,False,2,1.0389549732208252,1,
R2408,rotaría,272,word,2,True,2,0.5590090751647949,1,
R2408,tuplías,273,word,1,True,2,0.732133150100708,2,
R2408,honderían,274,word,1,True,2,1.4269640445709229,2,
R2408,vultaban,275,word,2,False,2,0.6021628379821777,2,
R2408,rondábamos,276,word,2,True,2,0.6829869747161865,1,
R2408,cisarán,277,word,2,False,2,1.2259621620178223,2,
R2408,jurabas,278,word,2,True,2,0.6288590431213379,1,
R2408,besaba,279,word,2,True,2,0.44790196418762207,1,
R2408,maftará,280,word,1,True,2,0.7079718112945557,2,
R2408,quijarás,281,word,1,True,2,1.3438467979431152,2,
R2408,lamerás,282,word,2,True,2,0.5140750408172607,1,
R2408,tosía,283,word,1,False,2,0.7423989772796631,1,
R2408,cumplirían,284,word,2,True,2,0.6267650127410889,1,
R2408,correrán,285,word,2,True,2,0.629054069519043,1,
R2408,casabas,286,word,2,True,2,0.4987931251525879,1,
R2408,charlarán,287,word,1,False,2,0.6900038719177246,1,
R2408,sumarían,288,word,2,True,2,0.5170118808746338,1,
R2408,sindaríamos,289,word,2,False,2,0.9010460376739502,2,
R2408,formaría,290,word,2,True,2,0.49783968925476074,1,
R2408,partirás,291,word,2,True,2,0.46186089515686035,1,
R2408,faltarían,292,word,2,True,2,0.5895521640777588,1,
R2408,chanraban,293,word,1,True,2,0.5538609027862549,2,
R2408,tujiría,294,word,1,True,2,0.552966833114624,2,
R2408,sauábamos,295,word,2,False,2,0.7749359607696533,2,
R2408,vendíamos,296,word,2,True,2,0.595099925994873,1,
R2408,somía,297,word,2,False,2,0.538909912109375,2,
R2408,tupliría,298,word,1,True,2,0.6438999176025391,2,
R2408,cetía,299,word,1,True,2,1.2328360080718994,2,
R2408,prenderías,300,word,2,True,2,0.6449341773986816,1,
R2408,besaríamos,301,word,2,True,2,0.5599188804626465,1,
R2408,focará,302,word,2,False,2,0.6748549938201904,2,
R2408,coserían,303,word,1,False,2,0.6820299625396729,1,
R2408,cenaban,304,word,2,True,2,0.9742591381072998,1,
R2408,rondaban,305,word,2,True,2,0.4149508476257324,1,
R2408,zusarán,306,word,1,True,2,0.8181760311126709,2,
R2408,temían,307,word,2,True,2,0.8270888328552246,1,
R2408,corrías,308,word,2,True,2,0.6147370338439941,1,
R2408,cenaba,309,word,2,True,2,0.7541627883911133,1,
R2408,prenderé,310,word,2,True,2,0.5769610404968262,1,
R2408,mardía,311,word,1,True,2,1.8859660625457764,2,
R2408,subirá,312,word,2,True,2,1.1929762363433838,1,
R2408,luntiremos,313,word,1,True,3,0.9109220504760742,2,
R2408,sufriremos,314,word,2,True,3,0.7448246479034424,1,
R2408,cetaríamos,315,word,2,False,3,0.816986083984375,2,
R2408,mertaba,316,word,1,True,3,1.1369080543518066,2,
R2408,cuarríamos,317,word,2,False,3,0.8518540859222412,2,
R2408,quijarían,318,word,1,True,3,0.8759920597076416,2,
R2408,ceflía,319,word,1,True,3,0.8337500095367432,2,
R2408,seserías,320,word,1,True,3,0.8328869342803955,2,
R2408,meteremos,321,word,1,False,3,2.4259519577026367,1,
R2408,pactará,322,word,1,False,3,0.7918288707733154,1,
R2408,cichiríamos,323,word,1,True,3,0.6640222072601318,2,
R2408,uníamos,324,word,2,True,3,0.7152237892150879,1,
R2408,bigaban,325,word,1,True,3,0.676232099533081,2,
R2408,monceremos,326,word,1,True,3,0.9419698715209961,2,
R2408,faltaban,327,word,2,True,3,0.7098848819732666,1,
R2408,charlaban,328,word,1,False,3,0.6641221046447754,1,
R2408,sumaría,329,word,2,True,3,0.7238810062408447,1,
R2408,honderás,330,word,1,True,3,0.784318208694458,2,
R2408,bruvirás,331,word,1,True,3,0.9570529460906982,2,
R2408,maftaba,332,word,1,True,3,0.9369552135467529,2,
R2408,galarás,333,word,2,False,3,0.8380253314971924,2,
R2408,obraría,334,word,2,True,3,1.4626288414001465,1,
R2408,casarás,335,word,2,True,3,0.5700070858001709,1,
R2408,comerían,336,word,2,True,3,0.6548759937286377,1,
R2408,zusabas,337,word,1,True,3,0.5939469337463379,2,
R2408,bailaban,338,word,2,True,3,0.9417099952697754,1,
R2408,cedíamos,339,word,1,False,3,0.7589280605316162,1,
R2408,bigaríamos,340,word,1,True,3,1.2107999324798584,2,
R2408,zusaban,341,word,1,True,3,0.5338737964630127,2,
R2408,bimábamos,342,word,1,True,3,0.8898859024047852,2,
R2408,cichirían,343,word,1,True,3,0.6089799404144287,2,
R2408,bimabas,344,word,1,True,3,0.463939905166626,2,
R2408,mardíamos,345,word,1,True,3,0.6560389995574951,2,
R2408,obraríamos,346,word,2,True,3,0.6679329872131348,1,
R2408,runaban,347,word,1,True,3,1.1349329948425293,2,
R2408,ciperá,348,word,1,True,3,0.7411110401153564,2,
R2408,lailará,349,word,1,True,3,0.8357408046722412,2,
R2408,lachías,350,word,1,True,3,0.7419307231903076,2,
R2408,pactaba,351,word,1,False,3,0.7089478969573975,1,
R2408,cosían,352,word,2,True,3,1.16093111038208,1,
R2408,moncerán,353,word,1,True,3,1.4608309268951416,2,
R2408,pactaremos,354,word,1,False,3,1.3880200386047363,1,
R2408,formarán,355,word,2,True,3,0.6388528347015381,1,
R2408,bailabas,356,word,2,True,3,0.5860700607299805,1,
R2408,chanraré,357,word,1,True,3,0.6867010593414307,2,
R2408,lamerías,358,word,1,False,3,0.6849679946899414,1,
R2408,cubrías,359,word,2,True,3,0.7528600692749023,1,
R2408,cubriría,360,word,2,True,3,1.1509528160095215,1,
R2408,meterás,361,word,2,True,3,1.1359658241271973,1,
R2408,sufrirá,362,word,2,True,3,0.5910179615020752,1,
R2408,lacheremos,363,word,2,False,3,1.011949062347412,2,
R2408,temeríamos,364,word,2,True,3,1.2489616870880127,1,
R2408,coseré,365,word,1,False,3,1.163719892501831,1,
R2408,runaríamos,366,word,1,True,3,1.9689321517944336,2,
R2408,rayábamos,367,word,2,True,3,1.0212111473083496,1,
R2408,morderá,368,word,1,False,3,0.9461297988891602,1,
R2408,ritíamos,369,word,1,True,3,2.134023904800415,2,
R2408,cuarrirás,370,word,2,False,3,1.3515830039978027,2,
R2408,frindía,371,word,1,True,3,0.8101820945739746,2,
R2408,cedías,372,word,1,False,3,1.6561400890350342,1,
R2408,lailarás,373,word,1,True,3,0.8282690048217773,2,
R2408,correría,374,word,1,False,3,0.7521131038665771,1,
R2408,tujiré,375,word,1,True,3,0.6883273124694824,2,
R2408,fanerían,376,word,1,True,3,1.0961847305297852,2,
R2408,frindías,377,word,2,False,3,1.3676731586456299,2,
R2408,rayarán,378,word,2,True,3,0.6872870922088623,1,
R2408,sufrirías,379,word,2,True,3,0.5392792224884033,1,
R2408,sauabas,380,word,2,False,3,0.584907054901123,2,
R2408,fanerán,381,word,1,True,3,0.894158124923706,2,
R2408,bruvíamos,382,word,1,True,3,0.8712050914764404,2,
R2408,vultarán,383,word,2,False,3,0.7192502021789551,2,
R2408,coserás,384,word,2,True,3,1.5832138061523438,1,
R2408,tupliríamos,385,word,1,True,3,0.708158016204834,2,
R2408,eplabas,386,word,1,True,3,1.3712940216064453,2,
R2408,comería,387,word,2,True,3,0.5929710865020752,1,
R2408,bruvían,388,word,1,True,3,0.8187549114227295,2,
R2408,comerá,389,word,2,True,3,0.5359799861907959,1,
R2408,rimará,390,word,1,False,3,0.7842938899993896,1,
R2408,galábamos,391,word,1,True,3,1.4428658485412598,2,
R2408,faníamos,392,word,1,True,3,0.7809960842132568,2,
R2408,ciperán,393,word,1,True,3,0.7958600521087646,2,
R2408,tuplirías,394,word,1,True,3,0.8298590183258057,2,
R2408,somíamos,395,word,1,True,3,0.8539760112762451,2,
R2408,faltabas,396,word,2,True,3,0.7829580307006836,1,
R2408,mertaré,397,word,2,False,3,0.9050271511077881,2,
R2408,retará,398,word,2,True,3,0.8909077644348145,1,
R2408,imiría,399,word,2,False,3,1.2779619693756104,2,
R2408,quemaríamos,400,word,1,False,3,1.4179651737213135,1,
R2408,cichiría,401,word,1,True,3,0.8359289169311523,2,
R2408,obrábamos,402,word,2,True,3,0.7100181579589844,1,
R2408,rayaría,403,word,2,True,3,0.7710409164428711,1,
R2408,chanrarán,404,word,1,True,3,0.7409842014312744,2,
R2408,porerás,405,word,2,False,3,1.1280009746551514,2,
R2408,moncías,406,word,1,True,3,0.6789610385894775,2,
R2408,focarán,407,word,2,False,3,0.9278638362884521,2,
R2408,rimarías,408,word,2,True,3,0.8191111087799072,1,
R2408,burraremos,409,word,1,True,3,1.0237979888916016,2,
R2408,focaríamos,410,word,2,False,3,0.8168282508850098,2,
R2408,sumaba,411,word,1,False,3,0.8589892387390137,1,
R2408,retaría,412,word,2,True,3,0.8604211807250977,1,
R2408,obraban,413,word,2,True,3,0.5698037147521973,1,
R2408,obrarán,414,word,2,True,3,0.514350175857544,1,
R2408,lacherá,415,word,1,True,3,1.5919759273529053,2,
R2408,obrarás,416,word,2,True,3,0.772367000579834,1,
R2408,ardían,417,word,1,False,3,1.468902349472046,1,
R2408,bailaremos,418,word,2,True,3,0.6740500926971436,1,
R2408,bigaba,419,word,1,True,3,0.7309401035308838,2,
R2408,faltará,420,word,2,True,3,0.7091138362884521,1,
R2408,bigará,421,word,1,True,3,0.7409992218017578,2,
R2408,cederé,422,word,1,False,3,0.699894905090332,1,
R2408,quijaremos,423,word,1,True,3,0.9159469604492188,2,
R2408,cuarrían,424,word,1,True,3,2.396944999694824,2,
R2408,faltaría,425,word,2,True,3,0.8728659152984619,1,
R2408,fundirás,426,word,2,True,3,1.3149468898773193,1,
R2408,lorgaba,427,word,1,True,3,0.8740110397338867,2,
R2408,riterán,428,word,1,True,3,1.1110568046569824,2,
R2408,monceríamos,429,word,1,True,3,0.7857720851898193,2,
R2408,rotaríamos,430,word,1,False,3,1.5699331760406494,1,
R2408,cosía,431,word,2,True,3,1.1084580421447754,1,
R2408,prenderás,432,word,2,True,3,0.6574127674102783,1,
R2408,ceteríamos,433,word,1,True,3,0.8748650550842285,2,
R2408,gacharíamos,434,word,1,True,3,0.6939141750335693,2,
R2408,mardiría,435,word,1,True,3,0.9599120616912842,2,
R2408,runábamos,436,word,1,True,3,2.587045907974243,2,
R2408,quemaré,437,word,1,False,3,1.2467749118804932,1,
R2408,tupliremos,438,word,1,True,3,0.8828449249267578,2,
R2408,mordía,439,word,2,True,3,1.2479407787322998,1,
R2408,sufriríamos,440,word,2,True,3,0.6529920101165771,1,
R2408,somían,441,word,1,True,3,1.3828980922698975,2,
R2408,burrarías,442,word,1,True,3,0.8755018711090088,2,
R2408,casaban,443,word,2,True,3,0.8985328674316406,1,
R2408,retaríamos,444,word,2,True,3,0.631558895111084,1,
R2408,zusará,445,word,1,True,3,0.686046838760376,2,
R2408,cetábamos,446,word,1,True,3,0.784869909286499,2,
R2408,subirían,447,word,2,True,3,0.6588213443756104,1,
R2408,lailaríamos,448,word,1,True,3,0.9839882850646973,2,
R2408,mardiremos,449,word,2,False,3,1.0789220333099365,2,
R2408,cubrían,450,word,2,True,3,1.171260118484497,1,
R2408,anrías,451,word,2,False,3,1.0778770446777344,2,
R2408,temerías,452,word,2,True,3,0.7778520584106445,1,
R2408,quemarían,453,word,1,False,3,0.8419687747955322,1,
R2408,barrerán,454,word,2,True,3,0.8989560604095459,1,
R2408,eplarán,455,word,1,True,3,0.6688859462738037,2,
R2408,ceflías,456,word,2,False,3,2.06886887550354,2,
R2408,rondará,457,word,1,False,3,1.1838829517364502,1,
R2408,formaba,458,word,2,True,3,0.8140192031860352,1,
R2408,rotarás,459,word,2,True,3,0.9529018402099609,1,
R2408,luntirás,460,word,1,True,3,0.8297710418701172,2,
R2408,jurábamos,461,word,2,True,3,1.027777910232544,1,
R2408,mertarán,462,word,1,True,3,1.3121459484100342,2,
R2408,bimarán,463,word,1,True,3,0.7521297931671143,2,
R2408,mardían,464,word,1,True,3,1.1039080619812012,2,
R2408,narraremos,465,word,2,True,3,0.8950178623199463,1,
R2408,mertarías,466,word,1,True,3,1.0958251953125,2,
R2408,cisábamos,467,word,1,True,3,1.1614902019500732,2,
R2408,jurarán,468,word,2,True,3,0.6958301067352295,1,
R2408,mordías,469,word,2,True,4,1.0629169940948486,1,
R2408,obrarían,470,word,2,True,4,0.7799949645996094,1,
R2408,cortaría,471,word,2,True,4,1.3310158252716064,1,
R2408,mertaríamos,472,word,1,True,4,1.3499670028686523,2,
R2408,eplaríamos,473,word,1,True,4,0.8039448261260986,2,
R2408,runabas,474,word,1,True,4,1.3221709728240967,2,
R2408,cipían,475,word,1,True,4,0.8188490867614746,2,
R2408,cuarriría,476,word,1,True,4,1.021704912185669,2,
R2408,anreré,477,word,2,False,4,1.7076821327209473,2,
R2408,lacheré,478,word,1,True,4,1.8510122299194336,2,
R2408,pavabas,479,word,1,True,4,0.9939091205596924,2,
R2408,temerás,480,word,2,True,4,0.9440000057220459,1,
R2408,porían,481,word,2,False,4,1.170903205871582,2,
R2408,sauarían,482,word,1,True,4,1.1009609699249268,2,
R2408,pactarían,483,word,1,False,4,1.0289852619171143,1,
R2408,casarían,484,word,2,True,4,1.1996829509735107,1,
R2408,rondaremos,485,word,1,False,4,0.860908031463623,1,
R2408,sufría,486,word,2,True,4,0.7588798999786377,1,
R2408,cuarriríamos,487,word,2,False,4,1.280933141708374,2,
R2408,faneríamos,488,word,1,True,4,0.7064540386199951,2,
R2408,sindábamos,489,word,1,True,4,1.3287160396575928,2,
R2408,partía,490,word,2,True,4,0.7800369262695312,1,
R2408,mertábamos,491,word,1,True,4,0.9879281520843506,2,
R2408,bimará,492,word,1,True,4,0.7908010482788086,2,
R2408,imiremos,493,word,1,True,4,0.6963531970977783,2,
R2408,sumaban,494,word,1,False,4,1.9178338050842285,1,
R2408,rotábamos,495,word,2,True,4,0.9389162063598633,1,
R2408,rotará,496,word,2,True,4,0.8169331550598145,1,
R2408,zusaríamos,497,word,1,True,4,0.5800271034240723,2,
R2408,faltaba,498,word,2,True,4,0.8990051746368408,1,
R2408,charlarías,499,word,1,False,4,0.6276259422302246,1,
R2408,faltarán,500,word,2,True,4,1.1330151557922363,1,
R2408,subiría,501,word,2,True,4,0.9658339023590088,1,
R2408,obrará,502,word,2,True,4,0.8628737926483154,1,
R2408,sindarías,503,word,1,True,4,1.2010738849639893,2,
R2408,mordíamos,504,word,1,False,4,2.229783773422241,1,
R2408,comíamos,505,word,1,False,4,1.5340559482574463,1,
R2408,frindíamos,506,word,1,True,4,0.772089958190918,2,
R2408,faltaríamos,507,word,2,True,4,0.842808723449707,1,
R2408,cenaríamos,508,word,2,True,4,0.7433826923370361,1,
R2408,barreré,509,word,2,True,4,0.9908299446105957,1,
R2408,formaremos,510,word,2,True,4,0.8629698753356934,1,
R2408,partiré,511,word,2,True,4,0.9086709022521973,1,
R2408,lailaban,512,word,1,True,4,0.6250298023223877,2,
R2408,cuarrías,513,word,2,False,4,1.6210479736328125,2,
R2408,sesíamos,514,word,1,True,4,0.9610800743103027,2,
R2408,tosería,515,word,1,False,4,1.470844030380249,1,
R2408,faneremos,516,word,2,False,4,1.55100679397583,2,
R2408,cortaré,517,word,2,True,4,0.9100780487060547,1,
R2408,focaré,518,word,2,False,4,0.8840570449829102,2,
R2408,tujía,519,word,1,True,4,0.7059237957000732,2,
R2408,cortaban,520,word,2,True,4,0.8626730442047119,1,
R2408,luntirían,521,word,1,True,4,0.7548880577087402,2,
R2408,frinderemos,522,word,1,True,4,1.2460439205169678,2,
R2408,obraré,523,word,2,True,4,1.4599900245666504,1,
R2408,quijaba,524,word,1,True,4,0.7079551219940186,2,
R2408,bimaré,525,word,1,True,4,0.8320798873901367,2,
R2408,rimarán,526,word,1,False,4,1.8495402336120605,1,
R2408,gachabas,527,word,1,True,4,1.4609031677246094,2,
R2408,lacherán,528,word,1,True,4,0.8729748725891113,2,
R2408,fanías,529,word,1,True,4,1.4250462055206299,2,
R2408,vendías,530,word,2,True,4,0.7810542583465576,1,
R2408,tuplía,531,word,1,True,4,1.66190505027771,2,
R2408,bigaremos,532,word,1,True,4,0.7430007457733154,2,
R2408,burraríamos,533,word,1,True,4,1.2647249698638916,2,
R2408,vultaba,534,word,2,False,4,0.8546528816223145,2,
R2408,luntías,535,word,1,True,4,1.1359808444976807,2,
R2408,subirás,536,word,2,True,4,0.9729669094085693,1,
R2408,burrabas,537,word,1,True,4,0.9219999313354492,2,
R2408,mardías,538,word,1,True,4,1.0379970073699951,2,
R2408,imirá,539,word,1,True,4,1.3928840160369873,2,
R2408,lorgarás,540,word,2,False,4,1.3320248126983643,2,
R2408,hondías,541,word,1,True,4,0.9978907108306885,2,
R2408,cetería,542,word,1,True,4,1.1560759544372559,2,
R2408,bailarás,543,word,1,False,4,2.242913007736206,1,
R2408,mardirás,544,word,1,True,4,1.5070459842681885,2,
R2408,cuarrirían,545,word,1,True,4,1.5472126007080078,2,
R2408,retarían,546,word,2,True,4,0.8918988704681396,1,
R2408,lachían,547,word,1,True,4,1.2238860130310059,2,
R2408,venderemos,548,word,2,True,4,1.445023775100708,1,
R2408,rayarían,549,word,2,True,4,0.9160258769989014,1,
R2408,juraríamos,550,word,2,True,4,1.0359852313995361,1,
R2408,cortarán,551,word,2,True,4,1.855046272277832,1,
R2408,runaría,552,word,1,True,4,1.5418400764465332,2,
R2408,focarían,553,word,2,False,4,1.1470892429351807,2,
R2408,chanraría,554,word,1,True,4,0.7599470615386963,2,
R2408,cichirías,555,word,1,True,4,0.7199881076812744,2,
R2408,subirán,556,word,1,False,4,1.4329311847686768,1,
R2408,besarían,557,word,2,True,4,1.0958669185638428,1,
R2408,cisaría,558,word,1,True,4,0.7188436985015869,2,
R2408,sindabas,559,word,1,True,4,1.1709401607513428,2,
R2408,cichirás,560,word,1,True,4,0.637829065322876,2,
R2408,quemaremos,561,word,2,True,4,0.9871678352355957,1,
R2408,rotabas,562,word,2,True,4,1.0659689903259277,1,
R2408,moncía,563,word,1,True,4,0.8058428764343262,2,
R2408,cisabas,564,word,1,True,4,0.701894998550415,2,
R2408,casaré,565,word,1,False,4,0.9368550777435303,1,
R2408,cortaremos,566,word,2,True,4,0.955834150314331,1,
R2408,ciperemos,567,word,1,True,4,0.7699282169342041,2,
R2408,cetarías,568,word,1,True,4,1.6618151664733887,2,
R2408,morderías,569,word,2,True,4,1.1638298034667969,1,
R2408,lailaré,570,word,1,True,4,0.7629201412200928,2,
R2408,zusarás,571,word,1,True,4,0.682466983795166,2,
R2408,lailarán,572,word,1,True,4,0.7789256572723389,2,
R2408,cumplíamos,573,word,2,True,4,1.2369978427886963,1,
R2408,zusaré,574,word,1,True,4,0.9767000675201416,2,
R2408,toserá,575,word,1,False,4,0.9919590950012207,1,
R2408,cubriré,576,word,1,False,4,0.9499208927154541,1,
R2408,nadarías,577,word,2,True,4,1.1178901195526123,1,
R2408,lamían,578,word,1,False,4,1.0047307014465332,1,
R2408,fundiremos,579,word,1,False,4,1.0459048748016357,1,
R2408,luntiré,580,word,1,True,4,0.9279537200927734,2,
R2408,arderán,581,word,1,False,4,1.4377899169921875,1,
R2408,galaba,582,word,1,True,4,0.7718157768249512,2,
R2408,honderá,583,word,1,True,4,0.7550489902496338,2,
R2408,lorgaban,584,word,1,True,4,0.822127103805542,2,
R2408,prenderá,585,word,2,True,4,1.087813138961792,1,
R2408,sauaban,586,word,1,True,4,0.9568588733673096,2,
R2408,fundiríamos,587,word,2,True,4,1.0698580741882324,1,
R2408,lameremos,588,word,1,False,4,1.3307881355285645,1,
R2408,cetaban,589,word,2,False,4,1.1207857131958008,2,
R2408,bimarías,590,word,1,True,4,0.848060131072998,2,
R2408,casaba,591,word,2,True,4,0.7197589874267578,1,
R2408,obrabas,592,word,2,True,4,0.6819429397583008,1,
R2408,honderías,593,word,1,True,4,0.8533141613006592,2,
R2408,cichirán,594,word,1,True,4,1.1376869678497314,2,
R2408,mertará,595,word,1,True,4,1.6159248352050781,2,
R2408,vultaré,596,word,2,False,4,0.6259357929229736,2,
R2408,sindaremos,597,word,1,True,4,0.7449917793273926,2,
R2408,ceteremos,598,word,1,True,4,1.7595949172973633,2,
R2408,fanería,599,word,1,True,4,1.2959740161895752,2,
R2408,subía,600,word,2,True,4,0.9098081588745117,1,
R2408,charlará,601,word,1,False,4,0.8817040920257568,1,
R2408,unirán,602,word,2,True,4,0.7541301250457764,1,
R2408,moncían,603,word,1,True,4,1.1119911670684814,2,
R2408,bigaré,604,word,1,True,4,0.6549561023712158,2,
R2408,sumábamos,605,word,2,True,4,0.9310398101806641,1,
R2408,burraban,606,word,1,True,4,1.5940020084381104,2,
R2408,comeremos,607,word,2,True,4,0.9548089504241943,1,
R2408,ciperé,608,word,1,True,4,0.6896717548370361,2,
R2408,besarán,609,word,2,True,4,0.877932071685791,1,
R2408,morderíamos,610,word,1,False,4,1.3379919528961182,1,
R2408,poríamos,611,word,2,False,4,0.6768560409545898,2,
R2408,barrerás,612,word,2,True,4,0.9718480110168457,1,
R2408,gacharé,613,word,1,True,4,1.7697043418884277,2,
R2408,lamerá,614,word,2,True,4,1.1858439445495605,1,
R2408,lamíamos,615,word,1,False,4,1.4086499214172363,1,
R2408,temerían,616,word,2,True,4,1.2030808925628662,1,
R2408,rimaba,617,word,1,False,4,0.9398660659790039,1,
R2408,toserán,618,word,1,False,4,1.057027816772461,1,
R2408,rayaban,619,word,2,True,4,0.7460498809814453,1,
R2408,casábamos,620,word,2,True,4,0.7438850402832031,1,
R2408,pactaré,621,word,1,False,4,1.867936134338379,1,
R2408,pavaría,622,word,1,True,4,0.8622407913208008,2,
R2408,pactaríamos,623,word,1,False,4,0.6288177967071533,1,
R2408,rondaría,624,word,1,False,4,1.8503949642181396,1,
R2408,imíamos,625,word,1,True,5,2.415844678878784,2,
R2408,charlarían,626,word,1,False,5,0.8370580673217773,1,
R2408,lacherías,627,word,1,True,5,0.6929590702056885,2,
R2408,charlabas,628,word,1,False,5,0.4759249687194824,1,
R2408,riteríamos,629,word,1,True,5,0.9739751815795898,2,
R2408,narraba,630,word,1,False,5,1.354849100112915,1,
R2408,poreré,631,word,1,True,5,0.8888449668884277,2,
R2408,metías,632,word,2,True,5,1.443875789642334,1,
R2408,galaré,633,word,1,True,5,0.7450828552246094,2,
R2408,anrerá,634,word,1,True,5,1.9038670063018799,2,
R2408,moncerían,635,word,1,True,5,1.0960519313812256,2,
R2408,bimarás,636,word,1,True,5,0.7171082496643066,2,
R2408,arderá,637,word,1,False,5,2.212904930114746,1,
R2408,cumplían,638,word,2,True,5,1.4459309577941895,1,
R2408,tuplirían,639,word,1,True,5,0.8970880508422852,2,
R2408,bimaban,640,word,1,True,5,1.0559577941894531,2,
R2408,nadarían,641,word,2,True,5,1.4898481369018555,1,
R2408,cederás,642,word,1,False,5,1.5508370399475098,1,
R2408,bailarán,643,word,2,True,5,2.046807050704956,1,
R2408,moncerás,644,word,1,True,5,0.7628378868103027,2,
R2408,faltaremos,645,word,2,True,5,1.1340320110321045,1,
R2408,tujirían,646,word,1,True,5,0.811851978302002,2,
R2408,partían,647,word,2,True,5,1.3159098625183105,1,
R2408,rayarías,648,word,2,True,5,0.693734884262085,1,
R2408,vultaría,649,word,2,False,5,0.7399230003356934,2,
R2408,mertaría,650,word,1,True,5,1.1088438034057617,2,
R2408,focaría,651,word,2,False,5,1.840874195098877,2,
R2408,honderé,652,word,1,True,5,0.7598800659179688,2,
R2408,lucharían,653,word,2,True,5,0.8169200420379639,1,
R2408,rimaríamos,654,word,1,False,5,0.998056173324585,1,
R2408,barríamos,655,word,2,True,5,0.7246189117431641,1,
R2408,galaban,656,word,1,True,5,0.7202320098876953,2,
R2408,lorgábamos,657,word,1,True,5,1.383993148803711,2,
R2408,lachía,658,word,1,True,5,0.7598321437835693,2,
R2408,corría,659,word,2,True,5,0.900947093963623,1,
R2408,sumará,660,word,2,True,5,0.9132659435272217,1,
R2408,runarías,661,word,2,False,5,1.5589358806610107,2,
R2408,cenarían,662,word,2,True,5,0.8058960437774658,1,
R2408,besarás,663,word,2,True,5,0.6828329563140869,1,
R2408,besaría,664,word,2,True,5,1.8146440982818604,1,
R2408,nadarás,665,word,2,True,5,0.6710410118103027,1,
R2408,ceterán,666,word,1,True,5,1.1949026584625244,2,
R2408,mertabas,667,word,1,True,5,0.9629340171813965,2,
R2408,lorgaré,668,word,2,False,5,1.5138959884643555,2,
R2408,vendería,669,word,2,True,5,0.859785795211792,1,
R2408,luchabas,670,word,2,True,5,0.8788962364196777,1,
R2408,luntiría,671,word,1,True,5,0.685014009475708,2,
R2408,cichíamos,672,word,1,True,5,0.7759919166564941,2,
R2408,obraremos,673,word,2,True,5,1.1040148735046387,1,
R2408,pactarías,674,word,1,False,5,0.7591121196746826,1,
R2408,sauaría,675,word,1,True,5,1.1828029155731201,2,
R2408,gruñiría,676,word,1,False,5,0.7810502052307129,1,
R2408,tuplirá,677,word,1,True,5,0.7690088748931885,2,
R2408,cuarrirán,678,word,1,True,5,0.7909290790557861,2,
R2408,pavábamos,679,word,1,True,5,1.0832958221435547,2,
R2408,juraré,680,word,2,True,5,2.0849180221557617,1,
R2408,lucharías,681,word,2,True,5,0.7030441761016846,1,
R2408,galará,682,word,1,True,5,0.546043872833252,2,
R2408,bailarían,683,word,1,False,5,1.4550490379333496,1,
R2408,sumarán,684,word,2,True,5,0.78059983253479,1,
R2408,charlaríamos,685,word,1,False,5,0.7538690567016602,1,
R2408,cisarías,686,word,1,True,5,0.6548550128936768,2,
R2408,vultábamos,687,word,2,False,5,0.8180677890777588,2,
R2408,luntirías,688,word,1,True,5,1.192883014678955,2,
R2408,ciperás,689,word,1,True,5,0.8980348110198975,2,
R2408,jurarás,690,word,1,False,5,0.9939939975738525,1,
R2408,tujirás,691,word,1,True,5,0.9189629554748535,2,
R2408,fundiré,692,word,1,False,5,1.1577057838439941,1,
R2408,pavarían,693,word,1,True,5,1.856956958770752,2,
R2408,obrarías,694,word,2,True,5,2.4327409267425537,1,
R2408,moncería,695,word,1,True,5,0.6067941188812256,2,
R2408,faltarías,696,word,2,True,5,0.7218639850616455,1,
R2408,narrarían,697,word,2,True,5,1.7305870056152344,1,
R2408,pactaría,698,word,1,False,5,0.660815954208374,1,
R2408,vendía,699,word,2,True,5,0.9888670444488525,1,
R2408,rondaré,700,word,1,False,5,1.1049690246582031,1,
R2408,chanraremos,701,word,1,True,5,0.8940200805664062,2,
R2408,eplaré,702,word,1,True,5,1.2148327827453613,2,
R2408,meterías,703,word,1,False,5,0.9968991279602051,1,
R2408,retaban,704,word,2,True,5,1.1928329467773438,1,
R2408,bigarán,705,word,1,True,5,0.8961408138275146,2,
R2408,luchaban,706,word,2,True,5,0.8721120357513428,1,
R2408,cetaría,707,word,1,True,5,1.2728688716888428,2,
R2408,juraría,708,word,2,True,5,1.3070569038391113,1,
R2408,cichiremos,709,word,1,True,5,0.8697409629821777,2,
R2408,lucharía,710,word,2,True,5,1.4088289737701416,1,
R2408,eplaría,711,word,1,True,5,0.88503098487854,2,
R2408,gruñías,712,word,1,False,5,1.3278400897979736,1,
R2408,cumpliríamos,713,word,2,True,5,1.5820012092590332,1,
R2408,mardirías,714,word,1,True,5,0.979032039642334,2,
R2408,cuarriré,715,word,1,True,5,0.8358149528503418,2,
R2408,faltaré,716,word,2,True,5,1.5980629920959473,1,
R2408,rondabas,717,word,2,True,5,1.2909948825836182,1,
R2408,mertarían,718,word,1,True,5,0.7182478904724121,2,
R2408,tujían,719,word,1,True,5,0.9781789779663086,2,
R2408,pavaríamos,720,word,1,True,5,1.0790340900421143,2,
R2408,temías,721,word,2,True,5,1.459942102432251,1,
R2408,imía,722,word,1,True,5,3.2899508476257324,2,
R2408,meterían,723,word,2,True,5,3.5493240356445312,1,
R2408,zusaba,724,word,1,True,5,0.6241281032562256,2,
R2408,hondería,725,word,1,True,5,0.6008148193359375,2,
R2408,tosíamos,726,word,1,False,5,1.1649489402770996,1,
R2408,cederías,727,word,1,False,5,0.716865062713623,1,
R2408,burrábamos,728,word,1,True,5,1.4558310508728027,2,
R2408,tujirías,729,word,1,True,5,0.780432939529419,2,
R2408,somerías,730,word,2,False,5,1.245955228805542,2,
R2408,ritías,731,word,1,True,5,1.3789339065551758,2,
R2408,anrerán,732,word,2,False,5,1.3599731922149658,2,
R2408,mordían,733,word,2,True,5,0.9239320755004883,1,
R2408,imiré,734,word,1,True,5,0.6500589847564697,2,
R2408,cichirá,735,word,1,True,5,0.7088191509246826,2,
R2408,somerá,736,word,1,True,5,0.46806883811950684,2,
R2408,cisaba,737,word,1,True,5,0.6540770530700684,2,
R2408,venderán,738,word,2,True,5,0.7047710418701172,1,
R2408,bruvirán,739,word,1,True,5,0.858069896697998,2,
R2408,eplaban,740,word,1,True,5,0.7148160934448242,2,
R2408,gruñíamos,741,word,1,False,5,0.6478679180145264,1,
R2408,vultabas,742,word,2,False,5,1.0378787517547607,2,
R2408,vultarás,743,word,2,False,5,0.9238598346710205,2,
R2408,quemarán,744,word,1,False,5,0.904932975769043,1,
R2408,imían,745,word,2,False,5,2.672131061553955,2,
R2408,cumplirán,746,word,2,True,5,0.8019020557403564,1,
R2408,pavaban,747,word,1,True,5,0.8659231662750244,2,
R2408,formábamos,748,word,2,True,5,0.8388152122497559,1,
R2408,coseremos,749,word,2,True,5,1.592987060546875,1,
R2408,seserás,750,word,1,True,5,0.9208219051361084,2,
R2408,moncerías,751,word,1,True,5,0.6361498832702637,2,
R2408,eplaba,752,word,1,True,5,0.7075498104095459,2,
R2408,gachaba,753,word,1,True,5,0.7359859943389893,2,
R2408,formarían,754,word,2,True,5,0.7969660758972168,1,
R2408,venderían,755,word,2,True,5,0.8147902488708496,1,
R2408,venderá,756,word,2,True,5,0.8828208446502686,1,
R2408,frinderás,757,word,2,False,5,1.6229760646820068,2,
R2408,bigarían,758,word,1,True,5,0.6651289463043213,2,
R2408,subías,759,word,2,True,5,0.8423528671264648,1,
R2408,fundirá,760,word,2,True,5,0.9960880279541016,1,
R2408,partías,761,word,2,True,5,1.1890051364898682,1,
R2408,ceterían,762,word,1,True,5,1.302988052368164,2,
R2408,hondía,763,word,1,True,5,2.770124912261963,2,
R2408,sufrirán,764,word,2,True,5,1.1101782321929932,1,
R2408,venderé,765,word,2,True,5,2.3441901206970215,1,
R2408,meterá,766,word,2,True,5,0.8629510402679443,1,
R2408,ceterás,767,word,1,True,5,1.6403889656066895,2,
R2408,lachería,768,word,1,True,5,0.8251030445098877,2,
R2408,formaríamos,769,word,2,True,5,0.7584178447723389,1,
R2408,burrarás,770,word,1,True,5,1.0199220180511475,2,
R2408,subiré,771,word,2,True,5,0.8702280521392822,1,
R2408,tujiríamos,772,word,1,True,5,1.1601037979125977,2,
R2408,rimaré,773,word,2,True,5,1.1424388885498047,1,
R2408,cisarían,774,word,2,False,5,1.6240010261535645,2,
R2408,quijarías,775,word,1,True,5,1.0472378730773926,2,
R2408,somería,776,word,1,True,5,2.0469648838043213,2,
R2408,barrían,777,word,2,True,5,1.998014211654663,1,
R2408,temerá,778,word,2,True,5,0.9478919506072998,1,
R2408,barreríamos,779,word,1,False,5,1.214853286743164,1,
R2408,formabas,780,word,2,True,5,0.9785141944885254,1,
R2408,temía,781,word,2,True,6,0.9292969703674316,1,
R2408,cisará,782,word,1,True,6,0.8776671886444092,2,
R2408,pavará,783,word,1,True,6,0.9441370964050293,2,
R2408,sumaré,784,word,2,True,6,1.2808549404144287,1,
R2408,runarán,785,word,1,True,6,1.564918041229248,2,
R2408,faltábamos,786,word,1,False,6,2.08487868309021,1,
R2408,correré,787,word,2,True,6,1.6578378677368164,1,
R2408,temíamos,788,word,1,False,6,1.8257768154144287,1,
R2408,metían,789,word,2,True,6,1.0187931060791016,1,
R2408,prenderán,790,word,2,True,6,1.4200189113616943,1,
R2408,rimaremos,791,word,2,True,6,1.605997085571289,1,
R2408,cosería,792,word,2,True,6,1.5518279075622559,1,
R2408,sauarás,793,word,1,True,6,1.387995719909668,2,
R2408,mardirá,794,word,1,True,6,1.209878921508789,2,
R2408,bailará,795,word,2,True,6,1.2279930114746094,1,
R2408,quijaban,796,word,1,True,6,0.7168629169464111,2,
R2408,lailabas,797,word,1,True,6,0.6628649234771729,2,
R2408,luntirá,798,word,1,True,6,0.5920917987823486,2,
R2408,subiremos,799,word,2,True,6,0.9447197914123535,1,
R2408,meteríamos,800,word,2,True,6,0.9384982585906982,1,
R2408,toserían,801,word,1,False,6,1.2960259914398193,1,
R2408,honderemos,802,word,1,True,6,0.7376148700714111,2,
R2408,cumplirías,803,word,2,True,6,0.702934980392456,1,
R2408,prenderían,804,word,2,True,6,0.7684340476989746,1,
R2408,toseríamos,805,word,1,False,6,1.1788249015808105,1,
R2408,partirías,806,word,2,True,6,2.065880060195923,1,
R2408,frinderé,807,word,1,True,6,1.3468570709228516,2,
R2408,nadará,808,word,2,True,6,2.3499538898468018,1,
R2408,tuplirán,809,word,1,True,6,0.7798798084259033,2,
R2408,cetíamos,810,word,1,True,6,1.532890796661377,2,
R2408,frindería,811,word,1,True,6,0.845958948135376,2,
R2408,burraba,812,word,2,False,6,1.0768420696258545,2,
R2408,honderán,813,word,1,True,6,1.0288329124450684,2,
R2408,narrará,814,word,2,True,6,1.3289241790771484,1,
R2408,runarás,815,word,2,False,6,1.059781789779663,2,
R2408,uniríamos,816,word,2,True,6,0.7963709831237793,1,
R2408,lucharé,817,word,2,True,6,0.6391167640686035,1,
R2408,partirá,818,word,2,True,6,0.6440482139587402,1,
R2408,lucharíamos,819,word,2,True,6,0.6811456680297852,1,
R2408,chanraríamos,820,word,1,True,6,0.9320778846740723,2,
R2408,quijábamos,821,word,1,True,6,0.6908619403839111,2,
R2408,rotarán,822,word,2,True,6,0.7060291767120361,1,
R2408,pactabas,823,word,1,False,6,1.0989339351654053,1,
R2408,cuarrirías,824,word,1,True,6,1.6528539657592773,2,
R2408,lailarían,825,word,1,True,6,1.0798768997192383,2,
R2408,gacharás,826,word,1,True,6,0.802081823348999,2,
R2408,partíamos,827,word,1,False,6,1.2347750663757324,1,
R2408,unías,828,word,2,True,6,1.3491120338439941,1,
R2408,tuplían,829,word,1,True,6,1.3438878059387207,2,
R2408,maftaban,830,word,1,True,6,1.7944409847259521,2,
R2408,fundíamos,831,word,1,False,6,1.8648629188537598,1,
R2408,maftarían,832,word,1,True,6,0.7118887901306152,2,
R2408,rotaré,833,word,2,True,6,1.1369819641113281,1,
R2408,bailábamos,834,word,1,False,6,1.1710278987884521,1,
R2408,runaré,835,word,1,True,6,1.7640361785888672,2,
R2408,cenábamos,836,word,2,True,6,1.7188160419464111,1,
R2408,anrían,837,word,1,True,6,1.353795051574707,2,
R2408,cichiré,838,word,1,True,6,0.7398428916931152,2,
R2408,barrerá,839,word,1,False,6,1.2980411052703857,1,
R2408,frinderíamos,840,word,1,True,6,0.7499430179595947,2,
R2408,galaremos,841,word,1,True,6,1.0407731533050537,2,
R2408,venderías,842,word,2,True,6,0.7894542217254639,1,
R2408,hondían,843,word,2,False,6,1.410973072052002,2,
R2408,coserá,844,word,1,False,6,1.1708359718322754,1,
R2408,eplarás,845,word,1,True,6,0.7138957977294922,2,
R2408,sindaría,846,word,1,True,6,1.0119402408599854,2,
R2408,anrerías,847,word,1,True,6,0.7784240245819092,2,
R2408,mertaban,848,word,1,True,6,1.435594081878662,2,
R2408,riteremos,849,word,1,True,6,2.594888925552368,2,
R2408,gruñirías,850,word,1,False,6,1.0006980895996094,1,
R2408,cetaba,851,word,2,False,6,1.7959496974945068,2,
R2408,seseremos,852,word,1,True,6,0.9870359897613525,2,
R2408,cenabas,853,word,2,True,6,1.684751272201538,1,
R2408,vultarían,854,word,2,False,6,0.9368901252746582,2,
R2408,bailaré,855,word,2,True,6,1.0247728824615479,1,
R2408,barrerías,856,word,2,True,6,1.584930658340454,1,
R2408,cortábamos,857,word,2,True,6,1.8167438507080078,1,
R2408,prendías,858,word,2,True,6,0.6010270118713379,1,
R2408,rayaremos,859,word,2,True,6,0.7249457836151123,1,
R2408,imirás,860,word,1,True,6,0.9989910125732422,2,
R2408,tuplirás,861,word,1,True,6,0.663891077041626,2,
R2408,mardirán,862,word,1,True,6,0.8958311080932617,2,
R2408,pactarán,863,word,1,False,6,1.1230170726776123,1,
R2408,mardiríamos,864,word,1,True,6,1.259932041168213,2,
R2408,chanrábamos,865,word,1,True,6,0.8699932098388672,2,
R2408,retarías,866,word,1,False,6,1.5238018035888672,1,
R2408,sufrían,867,word,2,True,6,0.7009050846099854,1,
R2408,lachíamos,868,word,2,False,6,0.6455390453338623,2,
R2408,quemaría,869,word,1,False,6,0.7359621524810791,1,
R2408,luntían,870,word,1,True,6,1.2049789428710938,2,
R2408,cubriremos,871,word,2,True,6,1.0789580345153809,1,
R2408,cenará,872,word,2,True,6,0.6900229454040527,1,
R2408,temería,873,word,2,True,6,0.7857940196990967,1,
R2408,lorgaremos,874,word,2,False,6,0.725944995880127,2,
R2408,honderíamos,875,word,2,False,6,1.3679847717285156,2,
R2408,seseré,876,word,1,True,6,0.6711089611053467,2,
R2408,charlaremos,877,word,1,False,6,0.7301208972930908,1,
R2408,retarás,878,word,2,True,6,0.854949951171875,1,
R2408,cumplirá,879,word,2,True,6,0.6169168949127197,1,
R2408,burrarán,880,word,2,False,6,0.5923080444335938,2,
R2408,ceteré,881,word,1,True,6,1.1990406513214111,2,
R2408,cetarían,882,word,1,True,6,1.4697341918945312,2,
R2408,bimaba,883,word,1,True,6,2.3778369426727295,2,
R2408,tuplíamos,884,word,1,True,6,1.0521018505096436,2,
R2408,cenaré,885,word,2,True,6,0.9018139839172363,1,
R2408,maftabas,886,word,1,True,6,1.2059059143066406,2,
R2408,narrabas,887,word,2,True,6,1.265064001083374,1,
R2408,gacharías,888,word,1,True,6,0.790952205657959,2,
R2408,gachaban,889,word,1,True,6,0.7049911022186279,2,
R2408,cisaríamos,890,word,1,True,6,0.5207629203796387,2,
R2408,maftaré,891,word,1,True,6,1.165889024734497,2,
R2408,sauaríamos,892,word,1,True,6,1.3778090476989746,2,
R2408,toserías,893,word,2,True,6,1.7519400119781494,1,
R2408,sesía,894,word,1,True,6,1.2480356693267822,2,
R2408,frinderían,895,word,1,True,6,1.2484512329101562,2,
R2408,gruñiré,896,word,1,False,6,1.480064868927002,1,
R2408,cefleré,897,word,1,True,6,0.6549849510192871,2,
R2408,lacherás,898,word,2,False,6,2.669839859008789,2,
R2408,anríamos,899,word,1,True,6,2.4768788814544678,2,
R2408,besaban,900,word,2,True,6,0.8759119510650635,1,
R2408,retábamos,901,word,2,True,6,1.3468098640441895,1,
R2408,lamería,902,word,2,True,6,1.2390329837799072,1,
R2408,focarás,903,word,2,False,6,1.2096977233886719,2,
R2408,subiríamos,904,word,2,True,6,1.0698442459106445,1,
R2408,bigarías,905,word,1,True,6,1.6179101467132568,2,
R2408,unía,906,word,2,True,6,1.2238752841949463,1,
R2408,cubría,907,word,2,True,6,0.6459801197052002,1,
R2408,sindarás,908,word,1,True,6,1.3670449256896973,2,
R2408,focabas,909,word,2,False,6,1.7258927822113037,2,
R2408,quemaban,910,word,2,True,6,2.6277880668640137,1,
R2408,sindaba,911,word,1,True,6,0.7689399719238281,2,
R2408,pavaremos,912,word,1,True,6,0.9169349670410156,2,
R2408,metíamos,913,word,1,False,6,1.231889247894287,1,
R2408,nadaré,914,word,2,True,6,0.9539408683776855,1,
R2408,quemarías,915,word,2,True,6,1.1659531593322754,1,
R2408,charlaré,916,word,1,False,6,1.0150392055511475,1,
R2408,chanrabas,917,word,1,True,6,0.7638871669769287,2,
R2408,correrías,918,word,2,True,6,0.9408369064331055,1,
R2408,nadaría,919,word,2,True,6,0.7925732135772705,1,
R2408,rotaba,920,word,2,True,6,2.9299519062042236,1,
R2408,frinderá,921,word,1,True,6,1.1545968055725098,2,
R2408,rayaré,922,word,2,True,6,0.8219869136810303,1,
R2408,somías,923,word,1,True,6,1.3210699558258057,2,
R2408,prenderemos,924,word,2,True,6,1.4379820823669434,1,
R2408,zusábamos,925,word,1,True,6,1.0388538837432861,2,
R2408,tujirán,926,word,1,True,6,0.7859711647033691,2,
R2408,ceflerá,927,word,1,True,6,0.69107985496521,2,
R2408,unían,928,word,2,True,6,1.107856035232544,1,
R2408,charlaría,929,word,1,False,6,1.0490319728851318,1,
R2408,hondíamos,930,word,1,True,6,1.0372159481048584,2,
R2408,bruviríamos,931,word,1,True,6,0.945457935333252,2,
R2408,fundías,932,word,1,False,6,1.9578039646148682,1,
R2408,correremos,933,word,1,False,6,1.0526998043060303,1,
R2408,anrería,934,word,1,True,6,0.8318190574645996,2,
R2408,cederíamos,935,word,1,False,6,0.6950998306274414,1,
R2408,lorgaríamos,936,word,2,False,6,0.7809929847717285,2,
R2408,lorgabas,937,word,1,True,7,1.7440462112426758,2,
R2408,juraba,938,word,2,True,7,0.7019412517547607,1,
R2408,focarías,939,word,2,False,7,1.291881799697876,2,
R2408,gruñiremos,940,word,1,False,7,1.2808609008789062,1,
R2408,rayarás,941,word,2,True,7,0.6528530120849609,1,
R2408,mardirían,942,word,1,True,7,1.1058862209320068,2,
R2408,bimaríamos,943,word,1,True,7,0.8770060539245605,2,
R2408,narraríamos,944,word,1,False,7,1.5139391422271729,1,
R2408,narrarás,945,word,2,True,7,0.6838498115539551,1,
R2408,bailarías,946,word,2,True,7,0.8158190250396729,1,
R2408,cipía,947,word,1,True,7,0.7213139533996582,2,
R2408,cetaré,948,word,1,True,7,1.6548678874969482,2,
R2408,frindían,949,word,1,True,7,2.3768670558929443,2,
R2408,focábamos,950,word,2,False,7,0.9280776977539062,2,
R2408,rimaría,951,word,2,True,7,1.2711057662963867,1,
R2408,rimabas,952,word,2,True,7,0.6559789180755615,1,
R2408,cisaré,953,word,1,True,7,0.6080009937286377,2,
R2408,toseré,954,word,2,True,7,1.4477760791778564,1,
R2408,galarían,955,word,1,True,7,2.850986957550049,2,
R2408,narrarías,956,word,1,False,7,2.222778081893921,1,
R2408,galaríamos,957,word,1,True,7,1.0148780345916748,2,
R2408,lucharán,958,word,1,False,7,1.4328131675720215,1,
R2408,focaban,959,word,2,False,7,1.0549099445343018,2,
R2408,subíamos,960,word,2,True,7,1.4779629707336426,1,
R2408,chanrará,961,word,2,False,7,1.8718998432159424,2,
R2408,nadabas,962,word,2,True,7,0.8656857013702393,1,
R2408,gruñirán,963,word,1,False,7,0.6319358348846436,1,
R2408,lorgarían,964,word,2,False,7,1.0158510208129883,2,
R2408,gachábamos,965,word,1,True,7,0.9049839973449707,2,
R2408,cuarriremos,966,word,1,True,7,0.9887290000915527,2,
R2408,quemabas,967,word,2,True,7,1.299901008605957,1,
R2408,gruñirá,968,word,1,False,7,0.6574797630310059,1,
R2408,fundirían,969,word,1,False,7,1.7458868026733398,1,
R2408,sufrirían,970,word,2,True,7,0.8729701042175293,1,
R2408,morderás,971,word,2,True,7,0.867372989654541,1,
R2408,anría,972,word,1,True,7,1.2948548793792725,2,
R2408,lamerán,973,word,2,True,7,0.9169661998748779,1,
R2408,lucharemos,974,word,2,True,7,0.9448819160461426,1,
R2408,ceflerán,975,word,1,True,7,0.7211258411407471,2,
R2408,lailaba,976,word,1,True,7,1.4306919574737549,2,
R2408,zusarías,977,word,1,True,7,0.8997633457183838,2,
R2408,sesías,978,word,1,True,7,1.9690139293670654,2,
R2408,nadaremos,979,word,2,True,7,1.1478137969970703,1,
R2408,somerían,980,word,1,True,7,2.3357889652252197,2,
R2408,cipías,981,word,1,True,7,0.6208357810974121,2,
R2408,rimarás,982,word,2,True,7,3.7389039993286133,1,
R2408,cederemos,983,word,1,False,7,1.0340478420257568,1,
R2408,rotaremos,984,word,2,True,7,1.0359773635864258,1,
R2408,maftarán,985,word,1,True,7,0.7409400939941406,2,
R2408,bimaría,986,word,1,True,7,0.8679189682006836,2,
R2408,burrarían,987,word,1,True,7,1.2588527202606201,2,
R2408,coserán,988,word,2,True,7,1.633965015411377,1,
R2408,vendían,989,word,2,True,7,0.6888933181762695,1,
R2408,tujías,990,word,1,True,7,0.877845048904419,2,
R2408,someré,991,word,1,True,7,2.192007064819336,2,
R2408,partiría,992,word,1,False,7,3.2456741333007812,1,
R2408,mordería,993,word,2,True,7,1.0150489807128906,1,
R2408,lamerían,994,word,2,True,7,1.0219519138336182,1,
R2408,cederá,995,word,1,False,7,1.148543119430542,1,
R2408,bimarían,996,word,1,True,7,2.7169549465179443,2,
R2408,sumaremos,997,word,2,True,7,1.444936990737915,1,
R2408,maftábamos,998,word,1,True,7,0.8127963542938232,2,
R2408,casará,999,word,2,True,7,1.468008041381836,1,
R2408,vultaríamos,1000,word,2,False,7,0.7458796501159668,2,
R2408,narrábamos,1001,word,1,False,7,1.0900628566741943,1,
R2408,bimaremos,1002,word,1,True,7,0.8700268268585205,2,
R2408,nadarán,1003,word,2,True,7,1.4168949127197266,1,
R2408,pavaré,1004,word,1,True,7,2.2519328594207764,2,
R2408,cortaba,1005,word,2,True,7,0.9269709587097168,1,
R2408,comerán,1006,word,2,True,7,2.3499629497528076,1,
R2408,barrías,1007,word,2,True,7,0.8118321895599365,1,
R2408,retaré,1008,word,2,True,7,1.7969410419464111,1,
R2408,bruvirían,1009,word,2,False,7,1.0359737873077393,2,
R2408,narraría,1010,word,2,True,7,0.740861177444458,1,
R2408,galarías,1011,word,1,True,7,0.7349700927734375,2,
R2408,sufrirás,1012,word,2,True,7,0.7407560348510742,1,
R2408,galarán,1013,word,1,True,7,1.3857707977294922,2,
R2408,pavarías,1014,word,1,True,7,0.820997953414917,2,
R2408,cumpliré,1015,word,2,True,7,0.9141030311584473,1,
R2408,jurarías,1016,word,2,True,7,0.7934279441833496,1,
R2408,cumpliremos,1017,word,2,True,7,0.6969161033630371,1,
R2408,arderíamos,1018,word,1,False,7,1.2157299518585205,1,
R2408,quemarás,1019,word,2,True,7,1.082489252090454,1,
R2408,cetías,1020,word,1,True,7,0.7890088558197021,2,
R2408,formaban,1021,word,2,True,7,1.0429160594940186,1,
R2408,luntía,1022,word,1,True,7,0.9640312194824219,2,
R2408,prendíamos,1023,word,2,True,7,0.7891168594360352,1,
R2408,rondaríamos,1024,word,1,False,7,1.4388070106506348,1,
R2408,barría,1025,word,2,True,7,1.9854421615600586,1,
R2408,mardiré,1026,word,1,True,7,1.1648530960083008,2,
R2408,partirán,1027,word,2,True,7,1.1759271621704102,1,
R2408,somerán,1028,word,2,False,7,2.311927080154419,2,
R2408,moncíamos,1029,word,1,True,7,0.7670598030090332,2,
R2408,cefleremos,1030,word,1,True,7,0.7300159931182861,2,
R2408,rondarías,1031,word,1,False,7,1.095102071762085,1,
R2408,gacharía,1032,word,1,True,7,0.6159543991088867,2,
R2408,pavarás,1033,word,1,True,7,0.7499818801879883,2,
R2408,lacherían,1034,word,2,False,7,2.176908016204834,2,
R2408,arderás,1035,word,1,False,7,1.563645839691162,1,
R2408,cedería,1036,word,1,False,7,0.9258561134338379,1,
R2408,luntiríamos,1037,word,1,True,7,1.1868422031402588,2,
R2408,cetabas,1038,word,2,False,7,1.5900962352752686,2,
R2408,maftaría,1039,word,1,True,7,0.7300069332122803,2,
R2408,cortarás,1040,word,2,True,7,1.7849769592285156,1,
R2408,bailaba,1041,word,2,True,7,0.8969242572784424,1,
R2408,someremos,1042,word,1,True,7,1.2306489944458008,2,
R2408,cenaría,1043,word,2,True,7,0.9880561828613281,1,
R2408,anrerían,1044,word,1,True,7,0.9990289211273193,2,
R2408,jurarían,1045,word,2,True,7,0.7045466899871826,1,
R2408,ciperían,1046,word,1,True,7,1.6134729385375977,2,
R2408,galabas,1047,word,1,True,7,1.4679322242736816,2,
R2408,ciperías,1048,word,1,True,7,1.940906047821045,2,
R2408,porerían,1049,word,1,True,7,0.7780520915985107,2,
R2408,unirás,1050,word,2,True,7,0.6571071147918701,1,
R2408,sumaríamos,1051,word,2,True,7,0.6838819980621338,1,
R2408,bruviré,1052,word,1,True,7,0.7227637767791748,2,
R2408,bruviremos,1053,word,1,True,7,0.7521588802337646,2,
R2408,runará,1054,word,2,False,7,1.864427089691162,2,
R2408,rimaban,1055,word,2,True,7,1.3188731670379639,1,
R2408,arderías,1056,word,1,False,7,0.8529400825500488,1,
R2408,imirías,1057,word,1,True,7,1.7539401054382324,2,
R2408,quijaré,1058,word,1,True,7,0.7589530944824219,2,
R2408,lailaremos,1059,word,1,True,7,0.9808080196380615,2,
R2408,arderían,1060,word,1,False,7,0.9429357051849365,1,
R2408,comías,1061,word,2,True,7,0.6939959526062012,1,
R2408,casaremos,1062,word,2,True,7,0.8279948234558105,1,
R2408,imiríamos,1063,word,1,True,7,3.139007091522217,2,
R2408,imirían,1064,word,1,True,7,0.741973876953125,2,
R2408,toseremos,1065,word,2,True,7,1.183819055557251,1,
R2408,riteré,1066,word,1,True,7,1.3249359130859375,2,
R2408,seserían,1067,word,1,True,7,0.842418909072876,2,
R2408,maftarás,1068,word,1,True,7,1.5528690814971924,2,
R2408,ceflerías,1069,word,1,True,7,1.6719233989715576,2,
R2408,nadaríamos,1070,word,1,False,7,0.11328792572021484,1,
R2408,cenarías,1071,word,2,True,7,0.8980538845062256,1,
R2408,comerías,1072,word,2,True,7,0.8453500270843506,1,
R2408,fundían,1073,word,1,False,7,1.817767858505249,1,
R2408,cumplía,1074,word,2,True,7,0.6749608516693115,1,
R2408,narraré,1075,word,2,True,7,0.6790390014648438,1,
R2408,charlaba,1076,word,1,False,7,0.733983039855957,1,
R2408,cubrirían,1077,word,2,True,7,0.9459030628204346,1,
R2408,luchaba,1078,word,2,True,7,0.627108097076416,1,
R2408,bailaríamos,1079,word,2,True,7,0.5478830337524414,1,
R2408,morderé,1080,word,2,True,7,0.5961399078369141,1,
R2408,quemábamos,1081,word,2,True,7,1.5571179389953613,1,
R2408,gruñiríamos,1082,word,1,False,7,0.880988359451294,1,
R2408,casaría,1083,word,2,True,7,0.6000089645385742,1,
R2408,cubrirías,1084,word,2,True,7,0.7330129146575928,1,
R2408,fundirán,1085,word,2,True,7,0.6319370269775391,1,
R2408,sufriré,1086,word,2,True,7,0.8687770366668701,1,
R2408,zusaremos,1087,word,1,True,7,0.6841690540313721,2,
R2408,quijará,1088,word,1,True,7,0.6748201847076416,2,
R2408,temeremos,1089,word,2,True,7,0.877971887588501,1,
R2408,subirías,1090,word,2,True,7,0.589810848236084,1,
R2408,bruvías,1091,word,1,True,7,1.0098638534545898,2,
R2408,bigábamos,1092,word,1,True,7,0.6759889125823975,2,
