participant,stimuli,trialNum,target_type,response,correct,block,reaction_time,trigger,
R2418,runabas,1,word,1,True,1,1.7627999782562256,2,
R2418,coseremos,2,word,2,True,1,6.019226789474487,1,
R2418,cumplirás,3,word,2,True,1,2.2191848754882812,1,
R2418,zusará,4,word,2,False,1,4.4501941204071045,2,
R2418,juraremos,5,word,2,True,1,2.4492428302764893,1,
R2418,pavarías,6,word,2,False,1,2.2411818504333496,2,
R2418,charlarás,7,word,2,True,1,10.402751922607422,1,
R2418,venderías,8,word,2,True,1,1.3788750171661377,1,
R2418,venderás,9,word,2,True,1,6.98199200630188,1,
R2418,besaré,10,word,2,True,1,1.6150438785552979,1,
R2418,charlaríamos,11,word,1,False,1,12.284064054489136,1,
R2418,monceré,12,word,1,True,1,8.429858922958374,2,
R2418,venderá,13,word,2,True,1,11.535767793655396,1,
R2418,chanrarías,14,word,1,True,1,5.471874952316284,2,
R2418,sauaba,15,word,1,True,1,6.215850114822388,2,
R2418,cenaríamos,16,word,2,True,1,15.098856925964355,1,
R2418,rayarías,17,word,2,True,1,12.438688039779663,1,
R2418,cubriremos,18,word,2,True,1,11.690860033035278,1,
R2418,runarás,19,word,1,True,1,6.506856203079224,2,
R2418,nadaban,20,word,2,True,1,4.454970836639404,1,
R2418,prenderemos,21,word,2,True,1,5.039941072463989,1,
R2418,faltaría,22,word,2,True,1,3.2588701248168945,1,
R2418,mordían,23,word,2,True,1,3.9359400272369385,1,
R2418,galaban,24,word,p,False,1,9.557130098342896,2,
R2418,casábamos,25,word,2,True,1,5.623987913131714,1,
R2418,porerías,26,word,1,True,1,3.8348782062530518,2,
R2418,vultarás,27,word,1,True,1,2.4068989753723145,2,
R2418,honderá,28,word,1,True,1,3.571871042251587,2,
R2418,sumaba,29,word,2,True,1,1.620966911315918,1,
R2418,moncías,30,word,1,True,1,4.428997755050659,2,
R2418,jurará,31,word,2,True,1,4.406094074249268,1,
R2418,formarás,32,word,2,True,1,2.346869945526123,1,
R2418,cichíamos,33,word,1,True,1,3.6819241046905518,2,
R2418,tupliré,34,word,1,True,1,3.3869099617004395,2,
R2418,moncerían,35,word,1,True,1,2.3429811000823975,2,
R2418,sumará,36,word,2,True,1,4.083910942077637,1,
R2418,seserán,37,word,1,True,1,3.9700510501861572,2,
R2418,quemaré,38,word,2,True,1,1.6869070529937744,1,
R2418,gruñirían,39,word,1,False,1,8.559890031814575,1,
R2418,lorgarían,40,word,2,False,1,5.8739659786224365,2,
R2418,ardería,41,word,2,True,1,8.630445003509521,1,
R2418,prenderían,42,word,2,True,1,4.425954103469849,1,
R2418,barrerás,43,word,1,False,1,4.264365911483765,1,
R2418,imirá,44,word,1,True,1,1.9018290042877197,2,
R2418,rondaremos,45,word,1,False,1,3.7240707874298096,1,
R2418,formaba,46,word,2,True,1,1.6438689231872559,1,
R2418,lamían,47,word,1,False,1,5.85400915145874,1,
R2418,sindarían,48,word,1,True,1,3.7148640155792236,2,
R2418,cortarán,49,word,2,True,1,3.396912097930908,1,
R2418,someríamos,50,word,2,False,1,4.643985986709595,2,
R2418,cederá,51,word,2,True,1,6.323533773422241,1,
R2418,maftarías,52,word,1,True,1,3.906907081604004,2,
R2418,focaré,53,word,1,True,1,4.251846790313721,2,
R2418,bigaremos,54,word,1,True,1,1.8518869876861572,2,
R2418,rimaríamos,55,word,1,False,1,2.48088002204895,1,
R2418,sumarán,56,word,1,False,1,12.64975905418396,1,
R2418,bigaríamos,57,word,1,True,1,2.285109043121338,2,
R2418,ceflerán,58,word,1,True,1,2.409769058227539,2,
R2418,maftaré,59,word,1,True,1,2.9883289337158203,2,
R2418,unirán,60,word,2,True,1,3.676974058151245,1,
R2418,lailarán,61,word,1,True,1,1.7518839836120605,2,
R2418,retaban,62,word,1,False,1,4.506966829299927,1,
R2418,ceteré,63,word,1,True,1,1.7670300006866455,2,
R2418,gachábamos,64,word,1,True,1,4.514980316162109,2,
R2418,cetían,65,word,1,True,1,2.0398600101470947,2,
R2418,lorgarías,66,word,2,False,1,2.896984100341797,2,
R2418,bruviríamos,67,word,1,True,1,1.604017734527588,2,
R2418,mertaremos,68,word,1,True,1,2.3860318660736084,2,
R2418,cipíamos,69,word,1,True,1,1.519909143447876,2,
R2418,frindía,70,word,1,True,1,2.4951798915863037,2,
R2418,cefleríamos,71,word,1,True,1,3.3028810024261475,2,
R2418,casaba,72,word,2,True,1,1.3110487461090088,1,
R2418,cichiría,73,word,1,True,1,1.3753421306610107,2,
R2418,retarán,74,word,1,False,1,2.5890567302703857,1,
R2418,rimaría,75,word,1,False,1,1.7218270301818848,1,
R2418,lamías,76,word,1,False,1,1.1929271221160889,1,
R2418,poreré,77,word,1,True,1,1.7939410209655762,2,
R2418,galarías,78,word,2,False,1,5.8550519943237305,2,
R2418,honderías,79,word,1,True,1,2.785470962524414,2,
R2418,cisaremos,80,word,1,True,1,2.4519479274749756,2,
R2418,bimaba,81,word,1,True,1,2.771911859512329,2,
R2418,morderían,82,word,2,True,1,2.0149009227752686,1,
R2418,obrábamos,83,word,2,True,1,4.929937839508057,1,
R2418,quemarás,84,word,2,True,1,3.1941869258880615,1,
R2418,charlaba,85,word,2,True,1,2.5419628620147705,1,
R2418,unirían,86,word,2,True,1,6.081023931503296,1,
R2418,cumplía,87,word,2,True,1,2.955962896347046,1,
R2418,narrará,88,word,2,True,1,6.595102310180664,1,
R2418,mardirían,89,word,1,True,1,2.4123809337615967,2,
R2418,meterá,90,word,2,True,1,5.638854026794434,1,
R2418,metían,91,word,2,True,1,1.77006196975708,1,
R2418,sumaría,92,word,2,True,1,3.949045181274414,1,
R2418,tosería,93,word,2,True,1,11.214816093444824,1,
R2418,cetaríamos,94,word,1,True,1,4.060675859451294,2,
R2418,corrías,95,word,2,True,1,2.3799118995666504,1,
R2418,seserá,96,word,1,True,1,10.467536926269531,2,
R2418,cetaba,97,word,p,False,1,17.225696086883545,2,
R2418,faneremos,98,word,1,True,1,1.5639009475708008,2,
R2418,cortaba,99,word,2,True,1,0.8979330062866211,1,
R2418,sufrirán,100,word,2,True,1,1.730006217956543,1,
R2418,faltaremos,101,word,1,False,1,2.8260371685028076,1,
R2418,bailaremos,102,word,2,True,1,2.066948175430298,1,
R2418,fanía,103,word,1,True,1,1.7848889827728271,2,
R2418,focaría,104,word,1,True,1,1.7660129070281982,2,
R2418,temeremos,105,word,2,True,1,1.9610629081726074,1,
R2418,pavaba,106,word,2,False,1,2.2498350143432617,2,
R2418,juraré,107,word,2,True,1,1.4728062152862549,1,
R2418,correré,108,word,2,True,1,4.88607120513916,1,
R2418,rayará,109,word,2,True,1,1.0658438205718994,1,
R2418,ritías,110,word,1,True,1,2.0257458686828613,2,
R2418,cortabas,111,word,2,True,1,1.0959138870239258,1,
R2418,obrará,112,word,2,True,1,2.540907859802246,1,
R2418,cenaré,113,word,2,True,1,1.7858681678771973,1,
R2418,imiríamos,114,word,1,True,1,1.7570390701293945,2,
R2418,eplaban,115,word,1,True,1,1.11484694480896,2,
R2418,imías,116,word,1,True,1,1.18904709815979,2,
R2418,uniremos,117,word,2,True,1,1.0819556713104248,1,
R2418,meteríamos,118,word,2,True,1,1.5599796772003174,1,
R2418,imirían,119,word,1,True,1,1.8280558586120605,2,
R2418,fundirían,120,word,2,True,1,2.8668951988220215,1,
R2418,casabas,121,word,2,True,1,1.0929651260375977,1,
R2418,mardirías,122,word,1,True,1,2.1538093090057373,2,
R2418,bailaban,123,word,2,True,1,1.3650119304656982,1,
R2418,cisará,124,word,1,True,1,1.806075096130371,2,
R2418,bailarías,125,word,2,True,1,1.2989211082458496,1,
R2418,ciperé,126,word,1,True,1,1.2637901306152344,2,
R2418,faltaban,127,word,2,True,1,1.120060920715332,1,
R2418,morderá,128,word,2,True,1,1.23992919921875,1,
R2418,hondían,129,word,1,True,1,1.914905071258545,2,
R2418,sindaban,130,word,1,True,1,2.0078659057617188,2,
R2418,fanerías,131,word,1,True,1,1.4038820266723633,2,
R2418,luntiré,132,word,1,True,1,1.5999867916107178,2,
R2418,maftará,133,word,1,True,1,1.710334062576294,2,
R2418,temíamos,134,word,2,True,1,1.155972957611084,1,
R2418,lorgaban,135,word,2,False,1,0.9642319679260254,2,
R2418,imiría,136,word,1,True,1,4.155097007751465,2,
R2418,partiremos,137,word,2,True,1,2.6808879375457764,1,
R2418,cortarían,138,word,2,True,1,1.1839380264282227,1,
R2418,gacharía,139,word,1,True,1,3.3276259899139404,2,
R2418,subiremos,140,word,2,True,1,0.9572000503540039,1,
R2418,tosías,141,word,2,True,1,1.1900551319122314,1,
R2418,comerá,142,word,2,True,1,1.8038578033447266,1,
R2418,tosía,143,word,2,True,1,1.149001121520996,1,
R2418,cenará,144,word,2,True,1,3.515831232070923,1,
R2418,pavarían,145,word,1,True,1,3.407940149307251,2,
R2418,cubrirá,146,word,2,True,1,6.730174779891968,1,
R2418,poreremos,147,word,1,True,1,1.5088341236114502,2,
R2418,formaría,148,word,2,True,1,1.598200798034668,1,
R2418,lameré,149,word,1,False,1,1.1577489376068115,1,
R2418,tuplían,150,word,1,True,1,1.6580047607421875,2,
R2418,coseríamos,151,word,1,False,1,3.3778319358825684,1,
R2418,sauarías,152,word,1,True,1,4.005147218704224,2,
R2418,chanrará,153,word,1,True,1,2.1669797897338867,2,
R2418,charlabas,154,word,2,True,1,1.681854009628296,1,
R2418,runábamos,155,word,1,True,1,1.1448700428009033,2,
R2418,besarías,156,word,2,True,1,1.6479649543762207,1,
R2418,lailará,157,word,1,True,2,1.0909926891326904,2,
R2418,runarán,158,word,1,True,2,1.1038599014282227,2,
R2418,somerá,159,word,1,True,2,1.0808610916137695,2,
R2418,galaríamos,160,word,1,True,2,2.554759979248047,2,
R2418,focaremos,161,word,1,True,2,1.3440897464752197,2,
R2418,luntirán,162,word,1,True,2,1.2249999046325684,2,
R2418,prendíamos,163,word,2,True,2,2.5300369262695312,1,
R2418,riterían,164,word,1,True,2,1.8828380107879639,2,
R2418,cubriré,165,word,2,True,2,2.758997917175293,1,
R2418,cichirás,166,word,1,True,2,1.3479042053222656,2,
R2418,nadábamos,167,word,2,True,2,1.3380160331726074,1,
R2418,lacherás,168,word,1,True,2,1.4466371536254883,2,
R2418,toserían,169,word,1,False,2,4.35536789894104,1,
R2418,gruñían,170,word,2,True,2,1.668999195098877,1,
R2418,correríamos,171,word,2,True,2,2.8690080642700195,1,
R2418,narrábamos,172,word,2,True,2,4.9820051193237305,1,
R2418,ciperán,173,word,1,True,2,1.0949478149414062,2,
R2418,frinderías,174,word,1,True,2,3.1278672218322754,2,
R2418,gachaba,175,word,1,True,2,1.6458919048309326,2,
R2418,prenderías,176,word,1,False,2,3.59891414642334,1,
R2418,cisarás,177,word,1,True,2,1.2690062522888184,2,
R2418,mordíamos,178,word,2,True,2,2.0108296871185303,1,
R2418,meterán,179,word,2,True,2,5.114431858062744,1,
R2418,burraremos,180,word,1,True,2,1.762080192565918,2,
R2418,metíamos,181,word,2,True,2,1.1959962844848633,1,
R2418,lamería,182,word,1,False,2,2.219876766204834,1,
R2418,burrarías,183,word,1,True,2,1.3309359550476074,2,
R2418,bailaré,184,word,2,True,2,1.288944959640503,1,
R2418,cisaré,185,word,1,True,2,0.9383449554443359,2,
R2418,subiría,186,word,2,True,2,1.674166202545166,1,
R2418,charlará,187,word,2,True,2,2.465672016143799,1,
R2418,bruvirás,188,word,1,True,2,1.7759840488433838,2,
R2418,juraríamos,189,word,2,True,2,2.4678828716278076,1,
R2418,venderíamos,190,word,1,False,2,3.368868112564087,1,
R2418,vultaban,191,word,1,True,2,1.4098460674285889,2,
R2418,sindaríamos,192,word,1,True,2,3.8349051475524902,2,
R2418,cenarán,193,word,1,False,2,1.0094232559204102,1,
R2418,barría,194,word,1,False,2,1.4428632259368896,1,
R2418,anría,195,word,1,True,2,2.519967794418335,2,
R2418,tuplías,196,word,1,True,2,1.0010590553283691,2,
R2418,seseremos,197,word,1,True,2,1.4217231273651123,2,
R2418,subirás,198,word,2,True,2,1.7419209480285645,1,
R2418,cisábamos,199,word,1,True,2,1.1729888916015625,2,
R2418,mertarás,200,word,1,True,2,2.5399580001831055,2,
R2418,ciperían,201,word,1,True,2,0.9087419509887695,2,
R2418,cubrirás,202,word,2,True,2,2.621901035308838,1,
R2418,vultarías,203,word,1,True,2,1.2169101238250732,2,
R2418,sindabas,204,word,1,True,2,1.3332788944244385,2,
R2418,comerás,205,word,2,True,2,1.6223628520965576,1,
R2418,cetaban,206,word,1,True,2,1.0131120681762695,2,
R2418,lorgaremos,207,word,2,False,2,2.5089378356933594,2,
R2418,lamerás,208,word,1,False,2,1.2312593460083008,1,
R2418,corría,209,word,2,True,2,1.1119110584259033,1,
R2418,ciperemos,210,word,1,True,2,1.0021700859069824,2,
R2418,prendería,211,word,2,True,2,1.8181912899017334,1,
R2418,galaré,212,word,1,True,2,1.085899829864502,2,
R2418,morderás,213,word,2,True,2,1.8497538566589355,1,
R2418,temías,214,word,2,True,2,1.297062873840332,1,
R2418,sumaríamos,215,word,1,False,2,1.4160070419311523,1,
R2418,lachías,216,word,1,True,2,1.0679852962493896,2,
R2418,anrías,217,word,1,True,2,1.5404269695281982,2,
R2418,vultarán,218,word,1,True,2,0.8143622875213623,2,
R2418,galabas,219,word,1,True,2,0.7183432579040527,2,
R2418,gruñiremos,220,word,1,False,2,2.4581639766693115,1,
R2418,comías,221,word,2,True,2,1.3971178531646729,1,
R2418,cortaría,222,word,2,True,2,1.838979959487915,1,
R2418,moncía,223,word,1,True,2,1.2910008430480957,2,
R2418,vendías,224,word,2,True,2,1.2739722728729248,1,
R2418,casarías,225,word,2,True,2,1.4868848323822021,1,
R2418,narraré,226,word,2,True,2,2.3810598850250244,1,
R2418,porerás,227,word,1,True,2,1.1610848903656006,2,
R2418,fanías,228,word,1,True,2,1.101146936416626,2,
R2418,lacherá,229,word,1,True,2,1.4730558395385742,2,
R2418,cenaban,230,word,1,False,2,1.1719770431518555,1,
R2418,besará,231,word,1,False,2,5.043055772781372,1,
R2418,barreremos,232,word,1,False,2,2.525876998901367,1,
R2418,gacharías,233,word,1,True,2,1.3960230350494385,2,
R2418,tujías,234,word,1,True,2,1.2960350513458252,2,
R2418,poría,235,word,1,True,2,1.4059581756591797,2,
R2418,lachía,236,word,1,True,2,1.1280670166015625,2,
R2418,cisarán,237,word,1,True,2,1.1839141845703125,2,
R2418,barreré,238,word,1,False,2,2.107836961746216,1,
R2418,focarías,239,word,1,True,2,1.9110691547393799,2,
R2418,coserá,240,word,1,False,2,1.6459929943084717,1,
R2418,jurábamos,241,word,1,False,2,3.797105073928833,1,
R2418,gruñiría,242,word,2,True,2,3.035983085632324,1,
R2418,cipería,243,word,1,True,2,3.847991943359375,2,
R2418,casaré,244,word,2,True,2,1.2629079818725586,1,
R2418,barríamos,245,word,2,True,2,1.4809319972991943,1,
R2418,zusaría,246,word,1,True,2,1.257922887802124,2,
R2418,barrían,247,word,2,True,2,1.6217939853668213,1,
R2418,lailarás,248,word,1,True,2,0.9928960800170898,2,
R2418,bruvían,249,word,1,True,2,0.9160568714141846,2,
R2418,coserás,250,word,1,False,2,1.5940001010894775,1,
R2418,zusaré,251,word,1,True,2,1.874906063079834,2,
R2418,maftabas,252,word,1,True,2,0.8453941345214844,2,
R2418,anreré,253,word,1,True,2,1.1668877601623535,2,
R2418,honderían,254,word,1,True,2,1.149616003036499,2,
R2418,galaba,255,word,1,True,2,1.132491111755371,2,
R2418,somería,256,word,1,True,2,1.1469569206237793,2,
R2418,faltarían,257,word,2,True,2,1.6628851890563965,1,
R2418,barrerán,258,word,1,False,2,1.958543062210083,1,
R2418,nadarán,259,word,2,True,2,2.1859052181243896,1,
R2418,sufriré,260,word,2,True,2,2.6665637493133545,1,
R2418,faneré,261,word,1,True,2,1.159998893737793,2,
R2418,sumábamos,262,word,2,True,2,1.4375650882720947,1,
R2418,fundía,263,word,1,False,2,1.1028368473052979,1,
R2418,zusarán,264,word,1,True,2,5.8118462562561035,2,
R2418,comerán,265,word,2,True,2,2.5058963298797607,1,
R2418,bimaremos,266,word,1,True,2,2.956078052520752,2,
R2418,obraremos,267,word,2,True,2,4.213720083236694,1,
R2418,riterás,268,word,1,True,2,1.1540510654449463,2,
R2418,cuarrirías,269,word,1,True,2,1.3720529079437256,2,
R2418,fundiría,270,word,1,False,2,1.9700350761413574,1,
R2418,toseré,271,word,2,True,2,4.373938083648682,1,
R2418,hondía,272,word,1,True,2,2.433971881866455,2,
R2418,narraríamos,273,word,1,False,2,2.1720998287200928,1,
R2418,besaban,274,word,2,True,2,1.3229420185089111,1,
R2418,rayarían,275,word,2,True,2,4.0651350021362305,1,
R2418,ceflería,276,word,1,True,2,0.8679208755493164,2,
R2418,ceflerá,277,word,1,True,2,1.2259809970855713,2,
R2418,pactarían,278,word,1,False,2,2.686044931411743,1,
R2418,partiríamos,279,word,1,False,2,2.9709601402282715,1,
R2418,fundiríamos,280,word,1,False,2,2.419006824493408,1,
R2418,faltarías,281,word,2,True,2,1.763962984085083,1,
R2418,cenábamos,282,word,2,True,2,1.863879919052124,1,
R2418,besarán,283,word,2,True,2,1.430027961730957,1,
R2418,ritía,284,word,1,True,2,1.149993896484375,2,
R2418,zusarías,285,word,1,True,2,3.73990797996521,2,
R2418,rimarás,286,word,1,False,2,1.3619821071624756,1,
R2418,sesíamos,287,word,1,True,2,1.409914255142212,2,
R2418,pavaremos,288,word,1,True,2,1.889859914779663,2,
R2418,anrían,289,word,1,True,2,2.073991060256958,2,
R2418,rimarán,290,word,1,False,2,1.1978988647460938,1,
R2418,frinderán,291,word,1,True,2,1.4100220203399658,2,
R2418,correrás,292,word,1,False,2,2.1458780765533447,1,
R2418,morderán,293,word,1,False,2,2.463015079498291,1,
R2418,pavarás,294,word,1,True,2,2.9459478855133057,2,
R2418,sesería,295,word,1,True,2,1.2428829669952393,2,
R2418,besaríamos,296,word,2,True,2,1.141002893447876,1,
R2418,rotaría,297,word,1,False,2,1.315087080001831,1,
R2418,gacharán,298,word,1,True,2,1.3642699718475342,2,
R2418,porerá,299,word,1,True,2,2.4100558757781982,2,
R2418,barrerían,300,word,1,False,2,3.2168469429016113,1,
R2418,fundirán,301,word,1,False,2,2.2869949340820312,1,
R2418,ciperíamos,302,word,1,True,2,0.9980528354644775,2,
R2418,cederías,303,word,1,False,2,3.803795099258423,1,
R2418,besaría,304,word,2,True,2,1.9583101272583008,1,
R2418,burrarán,305,word,1,True,2,2.2624998092651367,2,
R2418,honderán,306,word,1,True,2,1.06992506980896,2,
R2418,casaremos,307,word,2,True,2,1.4312670230865479,1,
R2418,casará,308,word,1,False,2,1.449798822402954,1,
R2418,besábamos,309,word,2,True,2,2.031080961227417,1,
R2418,sufrías,310,word,2,True,2,1.5318818092346191,1,
R2418,cisarían,311,word,1,True,2,1.2211260795593262,2,
R2418,quemarían,312,word,2,True,2,2.121903896331787,1,
R2418,unía,313,word,2,True,3,1.7658259868621826,1,
R2418,rotabas,314,word,1,False,3,2.208021879196167,1,
R2418,jurarán,315,word,1,False,3,1.6641297340393066,1,
R2418,ceterán,316,word,1,True,3,1.1198790073394775,2,
R2418,subían,317,word,2,True,3,1.3669400215148926,1,
R2418,partían,318,word,2,True,3,1.5099620819091797,1,
R2418,subiré,319,word,2,True,3,1.3058297634124756,1,
R2418,eplabas,320,word,1,True,3,0.9041080474853516,2,
R2418,sufriremos,321,word,2,True,3,1.4018681049346924,1,
R2418,moncerías,322,word,1,True,3,1.0438458919525146,2,
R2418,bigarías,323,word,1,True,3,1.151669979095459,2,
R2418,faltabas,324,word,2,True,3,1.0523388385772705,1,
R2418,lucharé,325,word,2,True,3,1.0720851421356201,1,
R2418,riteremos,326,word,1,True,3,0.9818849563598633,2,
R2418,moncíamos,327,word,1,True,3,0.9520690441131592,2,
R2418,chanraban,328,word,1,True,3,1.121953010559082,2,
R2418,bailaba,329,word,2,True,3,1.064897060394287,1,
R2418,formarían,330,word,2,True,3,1.3558430671691895,1,
R2418,frinderemos,331,word,1,True,3,1.3227488994598389,2,
R2418,metía,332,word,2,True,3,0.8689801692962646,1,
R2418,sauabas,333,word,1,True,3,1.4509057998657227,2,
R2418,gacharíamos,334,word,1,True,3,1.0229952335357666,2,
R2418,pactaré,335,word,1,False,3,1.1509737968444824,1,
R2418,quijarán,336,word,1,True,3,1.7068109512329102,2,
R2418,frinderé,337,word,1,True,3,1.3790488243103027,2,
R2418,formaremos,338,word,2,True,3,1.3011188507080078,1,
R2418,rondaban,339,word,1,False,3,1.5433228015899658,1,
R2418,imirás,340,word,1,True,3,1.0642189979553223,2,
R2418,lailarías,341,word,1,True,3,0.9278891086578369,2,
R2418,runaba,342,word,1,True,3,0.9770619869232178,2,
R2418,correremos,343,word,2,True,3,3.154872179031372,1,
R2418,somerás,344,word,1,True,3,2.6928141117095947,2,
R2418,fanían,345,word,1,True,3,0.8168168067932129,2,
R2418,luntirían,346,word,1,True,3,2.457885980606079,2,
R2418,poríamos,347,word,1,True,3,1.4310829639434814,2,
R2418,sumaremos,348,word,1,False,3,1.169713020324707,1,
R2418,imirán,349,word,1,True,3,0.7848720550537109,2,
R2418,bigarían,350,word,1,True,3,0.7618989944458008,2,
R2418,cederás,351,word,1,False,3,0.7309489250183105,1,
R2418,sauaremos,352,word,1,True,3,0.9154491424560547,2,
R2418,runarías,353,word,1,True,3,1.0357627868652344,2,
R2418,arderías,354,word,1,False,3,4.058954954147339,1,
R2418,eplarían,355,word,1,True,3,1.2048711776733398,2,
R2418,lucharía,356,word,1,False,3,1.2589528560638428,1,
R2418,rayarás,357,word,1,False,3,1.5359838008880615,1,
R2418,cosía,358,word,2,True,3,2.6700241565704346,1,
R2418,eplaba,359,word,1,True,3,1.6488659381866455,2,
R2418,formarán,360,word,2,True,3,1.4808540344238281,1,
R2418,gruñirá,361,word,2,True,3,2.6388938426971436,1,
R2418,nadarían,362,word,2,True,3,1.7820641994476318,1,
R2418,temerán,363,word,2,True,3,0.9929118156433105,1,
R2418,cisaba,364,word,1,True,3,0.9340617656707764,2,
R2418,cumplían,365,word,2,True,3,1.086040735244751,1,
R2418,mertarían,366,word,2,False,3,1.6009118556976318,2,
R2418,obraría,367,word,2,True,3,5.438056945800781,1,
R2418,moncería,368,word,1,True,3,1.0159821510314941,2,
R2418,bruvíamos,369,word,1,True,3,1.0156149864196777,2,
R2418,luntía,370,word,1,True,3,1.1750171184539795,2,
R2418,barrerías,371,word,1,False,3,2.918879985809326,1,
R2418,fundirás,372,word,1,False,3,2.961085319519043,1,
R2418,sauará,373,word,1,True,3,1.6809401512145996,2,
R2418,lorgaba,374,word,1,True,3,1.8630468845367432,2,
R2418,morderíamos,375,word,2,True,3,1.608424186706543,1,
R2418,sufría,376,word,2,True,3,1.4941668510437012,1,
R2418,moncerás,377,word,1,True,3,0.9487800598144531,2,
R2418,luchabas,378,word,2,True,3,1.3279829025268555,1,
R2418,metías,379,word,2,True,3,0.8868398666381836,1,
R2418,retaba,380,word,1,False,3,1.027073860168457,1,
R2418,cefleremos,381,word,1,True,3,1.0668139457702637,2,
R2418,ardían,382,word,2,True,3,0.926934003829956,1,
R2418,fanería,383,word,1,True,3,0.8666901588439941,2,
R2418,burraban,384,word,1,True,3,1.371901273727417,2,
R2418,galará,385,word,1,True,3,0.853003978729248,2,
R2418,vultará,386,word,1,True,3,0.7428851127624512,2,
R2418,galarán,387,word,1,True,3,0.8208839893341064,2,
R2418,bimarías,388,word,1,True,3,0.9091229438781738,2,
R2418,chanrabas,389,word,1,True,3,0.7198548316955566,2,
R2418,runará,390,word,1,True,3,0.9639139175415039,2,
R2418,frinderá,391,word,1,True,3,1.004011869430542,2,
R2418,tuplirás,392,word,1,True,3,0.6449489593505859,2,
R2418,obraban,393,word,2,True,3,1.4819729328155518,1,
R2418,rotaríamos,394,word,1,False,3,2.022980213165283,1,
R2418,moncerá,395,word,1,True,3,0.7618710994720459,2,
R2418,prenderán,396,word,2,True,3,2.413879871368408,1,
R2418,somerían,397,word,1,True,3,1.0159821510314941,2,
R2418,luntiría,398,word,1,True,3,1.1438350677490234,2,
R2418,cichirían,399,word,1,True,3,1.0119259357452393,2,
R2418,tujirían,400,word,1,True,3,0.854759931564331,2,
R2418,bruvías,401,word,1,True,3,0.9478240013122559,2,
R2418,lorgábamos,402,word,2,False,3,0.9499602317810059,2,
R2418,narrarás,403,word,1,False,3,1.7470037937164307,1,
R2418,pactarías,404,word,1,False,3,1.3810796737670898,1,
R2418,cumplíamos,405,word,2,True,3,1.1376841068267822,1,
R2418,bigarás,406,word,1,True,3,0.9017837047576904,2,
R2418,temían,407,word,2,True,3,1.5550110340118408,1,
R2418,riterá,408,word,1,True,3,0.8694000244140625,2,
R2418,rondarán,409,word,1,False,3,0.9669160842895508,1,
R2418,tujía,410,word,1,True,3,1.2618699073791504,2,
R2418,bigarán,411,word,1,True,3,0.8639318943023682,2,
R2418,anríamos,412,word,1,True,3,1.2151339054107666,2,
R2418,casarían,413,word,2,True,3,2.1429460048675537,1,
R2418,anrerás,414,word,1,True,3,2.4978978633880615,2,
R2418,nadará,415,word,2,True,3,1.6360876560211182,1,
R2418,rayaríamos,416,word,1,False,3,2.3630919456481934,1,
R2418,temerían,417,word,2,True,3,1.5501859188079834,1,
R2418,tosían,418,word,2,True,3,1.1632893085479736,1,
R2418,sauaré,419,word,1,True,3,0.8493390083312988,2,
R2418,honderás,420,word,1,True,3,0.7347550392150879,2,
R2418,corrían,421,word,2,True,3,1.0070040225982666,1,
R2418,sindarás,422,word,1,True,3,0.8987927436828613,2,
R2418,narrabas,423,word,1,False,3,2.1899468898773193,1,
R2418,barrerá,424,word,1,False,3,4.214875221252441,1,
R2418,cenaremos,425,word,1,False,3,4.171957015991211,1,
R2418,faltábamos,426,word,2,True,3,1.9339699745178223,1,
R2418,frindíamos,427,word,1,True,3,1.7000858783721924,2,
R2418,cetíamos,428,word,1,True,3,1.3779139518737793,2,
R2418,narrarán,429,word,1,False,3,1.9857292175292969,1,
R2418,cedían,430,word,1,False,3,0.7877612113952637,1,
R2418,runaban,431,word,1,True,3,0.8289248943328857,2,
R2418,rondaría,432,word,1,False,3,1.2665221691131592,1,
R2418,rotaremos,433,word,1,False,3,1.6819877624511719,1,
R2418,lailaré,434,word,1,True,3,0.9758040904998779,2,
R2418,luntiríamos,435,word,1,True,3,0.9598162174224854,2,
R2418,uníamos,436,word,2,True,3,1.0620148181915283,1,
R2418,sindarán,437,word,1,True,3,1.0779311656951904,2,
R2418,porías,438,word,1,True,3,0.891394853591919,2,
R2418,quemabas,439,word,2,True,3,1.084078073501587,1,
R2418,cederemos,440,word,1,False,3,0.9138319492340088,1,
R2418,focarían,441,word,1,True,3,1.5828568935394287,2,
R2418,pactabas,442,word,1,False,3,0.8440399169921875,1,
R2418,frinderás,443,word,1,True,3,0.8019559383392334,2,
R2418,tuplíamos,444,word,1,True,3,0.7139492034912109,2,
R2418,cichía,445,word,1,True,3,0.7548022270202637,2,
R2418,lailaríamos,446,word,1,True,3,1.063939094543457,2,
R2418,cortarías,447,word,2,True,3,1.4931280612945557,1,
R2418,cubriríamos,448,word,1,False,3,2.9031200408935547,1,
R2418,ardía,449,word,2,True,3,6.664993047714233,1,
R2418,rimaban,450,word,1,False,3,0.8519749641418457,1,
R2418,vendería,451,word,2,True,3,1.674048900604248,1,
R2418,cortará,452,word,2,True,3,2.2276740074157715,1,
R2418,partirías,453,word,1,False,3,3.591951847076416,1,
R2418,quijaremos,454,word,1,True,3,4.047102928161621,2,
R2418,tuplía,455,word,1,True,3,1.0980370044708252,2,
R2418,toserías,456,word,1,False,3,1.4380040168762207,1,
R2418,lucharemos,457,word,2,True,3,1.1739401817321777,1,
R2418,narrarían,458,word,1,False,3,1.5479109287261963,1,
R2418,casarán,459,word,2,True,3,1.5354290008544922,1,
R2418,bimarás,460,word,1,True,3,0.9529621601104736,2,
R2418,anreremos,461,word,1,True,3,0.8730659484863281,2,
R2418,meteremos,462,word,1,False,3,1.3720142841339111,1,
R2418,sindábamos,463,word,1,True,3,1.2769348621368408,2,
R2418,bailábamos,464,word,2,True,3,1.500891923904419,1,
R2418,obrabas,465,word,1,False,3,1.2969598770141602,1,
R2418,moncerán,466,word,1,True,3,3.6949119567871094,2,
R2418,morderé,467,word,2,True,3,3.237819194793701,1,
R2418,ceflerías,468,word,1,True,3,1.8558871746063232,2,
R2418,fanerán,469,word,1,True,4,1.5138859748840332,2,
R2418,burrarían,470,word,1,True,4,0.9799489974975586,2,
R2418,chanrarían,471,word,1,True,4,0.7409930229187012,2,
R2418,seserían,472,word,1,True,4,1.1639659404754639,2,
R2418,cortaré,473,word,2,True,4,1.3689682483673096,1,
R2418,partías,474,word,2,True,4,2.07377290725708,1,
R2418,temeríamos,475,word,2,True,4,1.6025609970092773,1,
R2418,sindará,476,word,1,True,4,1.1029019355773926,2,
R2418,cortaríamos,477,word,2,True,4,1.3668358325958252,1,
R2418,quemarán,478,word,2,True,4,1.5492839813232422,1,
R2418,pavará,479,word,1,True,4,0.8040320873260498,2,
R2418,cortaban,480,word,2,True,4,1.0387849807739258,1,
R2418,focábamos,481,word,1,True,4,1.05336594581604,2,
R2418,tujirías,482,word,1,True,4,0.811967134475708,2,
R2418,fundirá,483,word,2,True,4,2.1989691257476807,1,
R2418,arderás,484,word,1,False,4,2.0049710273742676,1,
R2418,lamía,485,word,1,False,4,1.6670331954956055,1,
R2418,sufrirías,486,word,2,True,4,4.221911907196045,1,
R2418,somía,487,word,1,True,4,2.817631959915161,2,
R2418,rotaba,488,word,1,False,4,1.5791511535644531,1,
R2418,cuarrirían,489,word,1,True,4,0.817957878112793,2,
R2418,metería,490,word,2,True,4,0.9779810905456543,1,
R2418,retábamos,491,word,1,False,4,1.4940869808197021,1,
R2418,bruvía,492,word,1,True,4,0.7649378776550293,2,
R2418,arderían,493,word,1,False,4,2.1744401454925537,1,
R2418,cetaría,494,word,1,True,4,3.5530130863189697,2,
R2418,obraríamos,495,word,1,False,4,1.4630489349365234,1,
R2418,correrían,496,word,1,False,4,1.9349677562713623,1,
R2418,arderíamos,497,word,1,False,4,4.038031101226807,1,
R2418,subirían,498,word,2,True,4,5.165702819824219,1,
R2418,zusabas,499,word,1,True,4,2.0200068950653076,2,
R2418,rondábamos,500,word,1,False,4,1.4009780883789062,1,
R2418,chanraríamos,501,word,1,True,4,2.395928144454956,2,
R2418,rimará,502,word,1,False,4,0.7239229679107666,1,
R2418,nadaré,503,word,2,True,4,1.6360602378845215,1,
R2418,sauábamos,504,word,1,True,4,0.8308558464050293,2,
R2418,sauarán,505,word,1,True,4,0.8011178970336914,2,
R2418,sufriríamos,506,word,2,True,4,2.2119650840759277,1,
R2418,rondaba,507,word,1,False,4,2.5599870681762695,1,
R2418,obrarán,508,word,1,False,4,1.7298190593719482,1,
R2418,unías,509,word,2,True,4,3.499880075454712,1,
R2418,galarían,510,word,1,True,4,2.083012104034424,2,
R2418,toseríamos,511,word,2,True,4,3.330073833465576,1,
R2418,tuplirían,512,word,1,True,4,0.7458460330963135,2,
R2418,vultaría,513,word,1,True,4,1.1237750053405762,2,
R2418,rondará,514,word,1,False,4,2.513031244277954,1,
R2418,unirás,515,word,2,True,4,2.586297035217285,1,
R2418,fundirías,516,word,2,True,4,4.385272026062012,1,
R2418,mertaríamos,517,word,1,True,4,2.2322120666503906,2,
R2418,juraría,518,word,2,True,4,2.1452620029449463,1,
R2418,sauaríamos,519,word,1,True,4,2.2833197116851807,2,
R2418,quemábamos,520,word,2,True,4,1.3700993061065674,1,
R2418,jurabas,521,word,2,True,4,2.27108097076416,1,
R2418,rotarás,522,word,1,False,4,1.316054105758667,1,
R2418,rondarían,523,word,1,False,4,1.1973648071289062,1,
R2418,pactaríamos,524,word,1,False,4,1.4114971160888672,1,
R2418,cosías,525,word,2,True,4,1.1512119770050049,1,
R2418,sufrirás,526,word,1,False,4,1.938136100769043,1,
R2418,mertarías,527,word,1,True,4,1.8953509330749512,2,
R2418,maftarían,528,word,1,True,4,0.9021921157836914,2,
R2418,juraban,529,word,2,True,4,3.8861188888549805,1,
R2418,lorgabas,530,word,1,True,4,1.6192271709442139,2,
R2418,rimábamos,531,word,1,False,4,1.21209716796875,1,
R2418,faltarás,532,word,2,True,4,1.441713809967041,1,
R2418,porían,533,word,1,True,4,1.283033847808838,2,
R2418,lacherán,534,word,1,True,4,0.8249490261077881,2,
R2418,unirías,535,word,2,True,4,2.513000011444092,1,
R2418,vendían,536,word,2,True,4,1.1629209518432617,1,
R2418,bailarás,537,word,2,True,4,1.2659800052642822,1,
R2418,pavarán,538,word,1,True,4,0.8389370441436768,2,
R2418,maftaría,539,word,1,True,4,0.7319619655609131,2,
R2418,arderán,540,word,2,True,4,2.0827829837799072,1,
R2418,galábamos,541,word,1,True,4,0.9900579452514648,2,
R2418,pavaré,542,word,1,True,4,1.6450929641723633,2,
R2418,comía,543,word,2,True,4,0.9758279323577881,1,
R2418,lamerían,544,word,1,False,4,1.3849940299987793,1,
R2418,temería,545,word,1,False,4,1.1947920322418213,1,
R2418,obrarás,546,word,2,True,4,3.5578949451446533,1,
R2418,obraba,547,word,2,True,4,2.6208057403564453,1,
R2418,zusaremos,548,word,1,True,4,3.3108983039855957,2,
R2418,mardíamos,549,word,1,True,4,4.130995988845825,2,
R2418,monceríamos,550,word,1,True,4,1.7520647048950195,2,
R2418,partía,551,word,2,True,4,1.8390159606933594,1,
R2418,casaría,552,word,2,True,4,1.3992598056793213,1,
R2418,maftarán,553,word,1,True,4,0.8788509368896484,2,
R2418,chanraba,554,word,1,True,4,0.9470460414886475,2,
R2418,cichías,555,word,1,True,4,0.746873140335083,2,
R2418,cichían,556,word,1,True,4,0.693946123123169,2,
R2418,cichiríamos,557,word,1,True,4,0.6730530261993408,2,
R2418,bimarán,558,word,1,True,4,0.8830196857452393,2,
R2418,formaban,559,word,2,True,4,2.028412103652954,1,
R2418,lucharán,560,word,2,True,4,1.8900349140167236,1,
R2418,gruñiré,561,word,2,True,4,1.808856725692749,1,
R2418,tupliremos,562,word,1,True,4,0.8771369457244873,2,
R2418,galaría,563,word,1,True,4,0.8538639545440674,2,
R2418,formaré,564,word,2,True,4,1.3169200420379639,1,
R2418,charlarías,565,word,2,True,4,1.6430251598358154,1,
R2418,nadaba,566,word,2,True,4,1.4349629878997803,1,
R2418,imiré,567,word,1,True,4,1.0149149894714355,2,
R2418,faltaré,568,word,2,True,4,1.0461080074310303,1,
R2418,nadaríamos,569,word,2,True,4,1.227090835571289,1,
R2418,vultaré,570,word,1,True,4,3.3158538341522217,2,
R2418,meterían,571,word,2,True,4,1.271885871887207,1,
R2418,lacheremos,572,word,1,True,4,1.04001784324646,2,
R2418,charlarían,573,word,2,True,4,4.072051048278809,1,
R2418,rondaríamos,574,word,1,False,4,1.422881841659546,1,
R2418,cetabas,575,word,1,True,4,3.7161130905151367,2,
R2418,mardiremos,576,word,1,True,4,1.8479499816894531,2,
R2418,toseremos,577,word,1,False,4,2.1750450134277344,1,
R2418,pavabas,578,word,1,True,4,0.957970380783081,2,
R2418,pavaría,579,word,1,True,4,0.9478592872619629,2,
R2418,chanrábamos,580,word,1,True,4,0.8448472023010254,2,
R2418,fundiré,581,word,2,True,4,2.6828789710998535,1,
R2418,sesías,582,word,1,True,4,1.1574032306671143,2,
R2418,faltará,583,word,2,True,4,1.1178460121154785,1,
R2418,luchaban,584,word,2,True,4,2.8159849643707275,1,
R2418,chanraremos,585,word,1,True,4,0.9268178939819336,2,
R2418,partiría,586,word,1,False,4,1.1459829807281494,1,
R2418,correrán,587,word,2,True,4,4.171404123306274,1,
R2418,uniríamos,588,word,1,False,4,3.9859399795532227,1,
R2418,cetarían,589,word,1,True,4,2.3078718185424805,2,
R2418,bimará,590,word,1,True,4,0.8459718227386475,2,
R2418,ceflerás,591,word,1,True,4,0.5929548740386963,2,
R2418,venderán,592,word,2,True,4,2.518049716949463,1,
R2418,rimaremos,593,word,1,False,4,1.239509105682373,1,
R2418,cumplirá,594,word,2,True,4,1.3539609909057617,1,
R2418,ceflía,595,word,1,True,4,1.3199808597564697,2,
R2418,cuarriré,596,word,1,True,4,1.3947551250457764,2,
R2418,gruñía,597,word,2,True,4,3.7470099925994873,1,
R2418,imía,598,word,1,True,4,0.704901933670044,2,
R2418,partirán,599,word,2,True,4,3.1648669242858887,1,
R2418,nadarás,600,word,2,True,4,1.8329541683197021,1,
R2418,cosíamos,601,word,2,True,4,1.5717029571533203,1,
R2418,mardiría,602,word,1,True,4,0.9528970718383789,2,
R2418,subía,603,word,2,True,4,1.0689711570739746,1,
R2418,prenderá,604,word,2,True,4,2.7840840816497803,1,
R2418,mertaba,605,word,1,True,4,0.921846866607666,2,
R2418,mordería,606,word,2,True,4,8.626938104629517,1,
R2418,rimarías,607,word,1,False,4,1.3899359703063965,1,
R2418,burraré,608,word,1,True,4,0.9580769538879395,2,
R2418,imíamos,609,word,1,True,4,0.828887939453125,2,
R2418,focaban,610,word,1,True,4,0.8967628479003906,2,
R2418,tujirán,611,word,1,True,4,0.6659388542175293,2,
R2418,focarán,612,word,1,True,4,1.0170550346374512,2,
R2418,ritíamos,613,word,1,True,4,0.8667540550231934,2,
R2418,hondería,614,word,1,True,4,0.7509880065917969,2,
R2418,retaré,615,word,1,False,4,0.7939269542694092,1,
R2418,gruñiríamos,616,word,1,False,4,1.3758702278137207,1,
R2418,poreríamos,617,word,1,True,4,1.3458831310272217,2,
R2418,ceflíamos,618,word,1,True,4,0.5859839916229248,2,
R2418,rayabas,619,word,2,True,4,1.0179293155670166,1,
R2418,nadaremos,620,word,2,True,4,7.832106113433838,1,
R2418,venderían,621,word,2,True,4,1.5130751132965088,1,
R2418,frindías,622,word,1,True,4,1.4566659927368164,2,
R2418,quijaba,623,word,1,True,4,1.0059411525726318,2,
R2418,barrería,624,word,1,False,4,1.2277288436889648,1,
R2418,zusaríamos,625,word,1,True,5,1.1090998649597168,2,
R2418,eplaríamos,626,word,1,True,5,1.2358510494232178,2,
R2418,temía,627,word,2,True,5,1.3861198425292969,1,
R2418,bimabas,628,word,1,True,5,1.4659109115600586,2,
R2418,partíamos,629,word,2,True,5,1.370877981185913,1,
R2418,cetía,630,word,1,True,5,0.8419108390808105,2,
R2418,casarás,631,word,2,True,5,1.592904806137085,1,
R2418,focaba,632,word,1,True,5,1.3539392948150635,2,
R2418,gacharemos,633,word,1,True,5,0.7557170391082764,2,
R2418,galaremos,634,word,1,True,5,1.22098708152771,2,
R2418,ardías,635,word,2,True,5,0.9129259586334229,1,
R2418,subíamos,636,word,2,True,5,0.9969208240509033,1,
R2418,comeré,637,word,2,True,5,0.8970589637756348,1,
R2418,formaríamos,638,word,2,True,5,1.7189860343933105,1,
R2418,vendíamos,639,word,2,True,5,1.6313161849975586,1,
R2418,rotarían,640,word,1,False,5,1.9399092197418213,1,
R2418,somías,641,word,1,True,5,1.0740699768066406,2,
R2418,charlaría,642,word,1,False,5,1.0439410209655762,1,
R2418,cortaremos,643,word,2,True,5,1.2808988094329834,1,
R2418,anrerías,644,word,1,True,5,0.9173979759216309,2,
R2418,besaremos,645,word,2,True,5,3.785897970199585,1,
R2418,cuarrirá,646,word,1,True,5,1.0680339336395264,2,
R2418,eplarías,647,word,1,True,5,0.7627692222595215,2,
R2418,hondías,648,word,1,True,5,0.7684271335601807,2,
R2418,fanerás,649,word,1,True,5,0.7939722537994385,2,
R2418,partirás,650,word,2,True,5,3.282119035720825,1,
R2418,cetarán,651,word,1,True,5,0.9759368896484375,2,
R2418,bigaría,652,word,1,True,5,1.1008131504058838,2,
R2418,rayarán,653,word,2,True,5,1.8942310810089111,1,
R2418,bimaríamos,654,word,1,True,5,0.7748746871948242,2,
R2418,cuarrías,655,word,2,False,5,1.1676599979400635,2,
R2418,pactará,656,word,1,False,5,0.8643977642059326,1,
R2418,bruviremos,657,word,1,True,5,1.1478919982910156,2,
R2418,cenabas,658,word,2,True,5,1.2180066108703613,1,
R2418,lailaban,659,word,1,True,5,0.9658586978912354,2,
R2418,cipías,660,word,1,True,5,1.1476531028747559,2,
R2418,burrarás,661,word,1,True,5,0.8848788738250732,2,
R2418,charlaré,662,word,2,True,5,1.5031380653381348,1,
R2418,cuarrirás,663,word,1,True,5,1.0199880599975586,2,
R2418,lucharías,664,word,2,True,5,1.2509660720825195,1,
R2418,quijaría,665,word,1,True,5,2.1659462451934814,2,
R2418,arderemos,666,word,1,False,5,1.6347730159759521,1,
R2418,cenarás,667,word,2,True,5,1.378411054611206,1,
R2418,cubríamos,668,word,2,True,5,1.2599751949310303,1,
R2418,seseríamos,669,word,1,True,5,0.7668170928955078,2,
R2418,bruviré,670,word,1,True,5,0.9890239238739014,2,
R2418,rondabas,671,word,1,False,5,1.6719610691070557,1,
R2418,cetaremos,672,word,1,True,5,1.701685905456543,2,
R2418,comerías,673,word,2,True,5,2.9250810146331787,1,
R2418,cubría,674,word,2,True,5,2.00892972946167,1,
R2418,eplaré,675,word,1,True,5,0.884962797164917,2,
R2418,bigará,676,word,1,True,5,0.9498066902160645,2,
R2418,someremos,677,word,1,True,5,0.9028940200805664,2,
R2418,cetías,678,word,1,True,5,0.9701511859893799,2,
R2418,burraba,679,word,1,True,5,0.6779530048370361,2,
R2418,frinderíamos,680,word,1,True,5,1.8048911094665527,2,
R2418,somían,681,word,1,True,5,1.0039091110229492,2,
R2418,someré,682,word,1,True,5,0.6278939247131348,2,
R2418,quijábamos,683,word,1,True,5,0.8490047454833984,2,
R2418,cetarías,684,word,1,True,5,1.3998708724975586,2,
R2418,cubrías,685,word,1,False,5,2.525974988937378,1,
R2418,cumpliré,686,word,2,True,5,2.611154079437256,1,
R2418,narrarías,687,word,1,False,5,2.3066089153289795,1,
R2418,correrías,688,word,2,True,5,2.969947099685669,1,
R2418,bruviría,689,word,1,True,5,0.984954833984375,2,
R2418,gruñías,690,word,2,True,5,1.88499116897583,1,
R2418,quemaremos,691,word,2,True,5,1.6738650798797607,1,
R2418,somerías,692,word,1,True,5,1.5898032188415527,2,
R2418,anrerán,693,word,1,True,5,0.8178868293762207,2,
R2418,anreríamos,694,word,1,True,5,0.8998870849609375,2,
R2418,rimabas,695,word,1,False,5,0.772935152053833,1,
R2418,luntías,696,word,1,True,5,0.839677095413208,2,
R2418,luntirás,697,word,1,True,5,1.7420530319213867,2,
R2418,comíamos,698,word,2,True,5,1.225748062133789,1,
R2418,toserás,699,word,2,True,5,4.807337999343872,1,
R2418,mertarán,700,word,1,True,5,2.308104991912842,2,
R2418,cichiré,701,word,1,True,5,0.7979660034179688,2,
R2418,bigaré,702,word,1,True,5,0.7458500862121582,2,
R2418,besarían,703,word,2,True,5,1.4898512363433838,1,
R2418,partirá,704,word,2,True,5,2.669039249420166,1,
R2418,gruñirán,705,word,2,True,5,2.700063943862915,1,
R2418,cisabas,706,word,1,True,5,1.537038803100586,2,
R2418,cetábamos,707,word,1,True,5,1.0360219478607178,2,
R2418,focará,708,word,1,True,5,5.544938087463379,2,
R2418,rotábamos,709,word,1,False,5,1.5730040073394775,1,
R2418,corríamos,710,word,2,True,5,1.2745318412780762,1,
R2418,sumarías,711,word,1,False,5,1.7000341415405273,1,
R2418,faníamos,712,word,1,True,5,0.781135082244873,2,
R2418,juraba,713,word,2,True,5,1.0229260921478271,1,
R2418,mardían,714,word,1,True,5,1.4879660606384277,2,
R2418,lailarían,715,word,1,True,5,0.8439321517944336,2,
R2418,ciperás,716,word,1,True,5,0.9889748096466064,2,
R2418,eplarás,717,word,1,True,5,1.6790552139282227,2,
R2418,gacharé,718,word,1,True,5,0.7670049667358398,2,
R2418,cortarás,719,word,1,False,5,1.3887732028961182,1,
R2418,ceteremos,720,word,1,True,5,3.055879831314087,2,
R2418,rotará,721,word,1,False,5,1.0329439640045166,1,
R2418,meteré,722,word,2,True,5,1.0520031452178955,1,
R2418,morderemos,723,word,2,True,5,1.818084716796875,1,
R2418,bimarían,724,word,1,True,5,1.8180017471313477,2,
R2418,sufrían,725,word,2,True,5,1.1251420974731445,1,
R2418,bruvirá,726,word,1,True,5,0.8919050693511963,2,
R2418,cetará,727,word,1,True,5,1.7148098945617676,2,
R2418,imían,728,word,1,True,5,0.6749699115753174,2,
R2418,lameremos,729,word,1,False,5,0.7278180122375488,1,
R2418,retaremos,730,word,1,False,5,0.6779131889343262,1,
R2418,cumpliríamos,731,word,1,False,5,1.841048002243042,1,
R2418,anrería,732,word,1,True,5,1.9448258876800537,2,
R2418,riteríamos,733,word,1,True,5,1.206057071685791,2,
R2418,lacherías,734,word,2,False,5,0.8239128589630127,2,
R2418,lucharás,735,word,2,True,5,2.5535800457000732,1,
R2418,temerás,736,word,2,True,5,1.3719141483306885,1,
R2418,cuarríamos,737,word,2,False,5,2.723011016845703,2,
R2418,coserías,738,word,2,True,5,3.421863079071045,1,
R2418,pactábamos,739,word,1,False,5,0.8239037990570068,1,
R2418,bailarán,740,word,2,True,5,1.3669161796569824,1,
R2418,tujiría,741,word,1,True,5,0.8070149421691895,2,
R2418,luntirá,742,word,1,True,5,0.7639780044555664,2,
R2418,tupliría,743,word,1,True,5,1.1069707870483398,2,
R2418,rotarías,744,word,1,False,5,1.2380008697509766,1,
R2418,meterás,745,word,2,True,5,1.7410879135131836,1,
R2418,cumplías,746,word,2,True,5,1.9333200454711914,1,
R2418,cederé,747,word,2,True,5,4.608094215393066,1,
R2418,retará,748,word,1,False,5,2.0979230403900146,1,
R2418,honderé,749,word,1,True,5,1.5471103191375732,2,
R2418,coserán,750,word,2,True,5,3.768009901046753,1,
R2418,cumplirían,751,word,2,True,5,3.5780341625213623,1,
R2418,obraré,752,word,2,True,5,1.160938024520874,1,
R2418,ardíamos,753,word,2,True,5,1.435964822769165,1,
R2418,bailarían,754,word,2,True,5,2.337759017944336,1,
R2418,sufríamos,755,word,2,True,5,2.949810743331909,1,
R2418,unirá,756,word,2,True,5,1.4111049175262451,1,
R2418,ritería,757,word,1,True,5,1.2854950428009033,2,
R2418,quijaré,758,word,1,True,5,1.460923194885254,2,
R2418,vultaba,759,word,1,True,5,0.8139603137969971,2,
R2418,mertábamos,760,word,1,True,5,1.137773036956787,2,
R2418,cichirá,761,word,1,True,5,0.6561279296875,2,
R2418,fanerían,762,word,1,True,5,0.6369578838348389,2,
R2418,comían,763,word,2,True,5,0.7959628105163574,1,
R2418,cederían,764,word,1,False,5,1.222071886062622,1,
R2418,sesían,765,word,1,True,5,1.2358481884002686,2,
R2418,prenderás,766,word,2,True,5,2.674978733062744,1,
R2418,quemaban,767,word,2,True,5,0.9198439121246338,1,
R2418,narraremos,768,word,2,True,5,1.5960111618041992,1,
R2418,cubriría,769,word,2,True,5,1.8519392013549805,1,
R2418,tupliríamos,770,word,1,True,5,0.8289041519165039,2,
R2418,ceflerían,771,word,1,True,5,0.7549688816070557,2,
R2418,vultaríamos,772,word,1,True,5,1.077023983001709,2,
R2418,sindaré,773,word,1,True,5,1.3998749256134033,2,
R2418,bruvirían,774,word,1,True,5,0.6728687286376953,2,
R2418,moncían,775,word,1,True,5,1.2798609733581543,2,
R2418,cortábamos,776,word,2,True,5,0.9222090244293213,1,
R2418,casaban,777,word,2,True,5,1.9429848194122314,1,
R2418,quemaba,778,word,2,True,5,2.189030170440674,1,
R2418,formábamos,779,word,2,True,5,1.200591802597046,1,
R2418,quijabas,780,word,1,True,5,1.0418519973754883,2,
R2418,prendías,781,word,2,True,6,1.155029058456421,1,
R2418,focabas,782,word,1,True,6,5.909038066864014,2,
R2418,uniría,783,word,2,True,6,1.7949779033660889,1,
R2418,cetaré,784,word,1,True,6,0.9350159168243408,2,
R2418,quemarías,785,word,2,True,6,0.9859561920166016,1,
R2418,cumpliremos,786,word,2,True,6,1.8301310539245605,1,
R2418,pavaríamos,787,word,1,True,6,0.9848198890686035,2,
R2418,sauaban,788,word,1,True,6,0.6828742027282715,2,
R2418,barreríamos,789,word,2,True,6,3.260125160217285,1,
R2418,uniré,790,word,2,True,6,1.039015769958496,1,
R2418,galarás,791,word,1,True,6,1.446894884109497,2,
R2418,prenderíamos,792,word,2,True,6,1.4459388256072998,1,
R2418,cipía,793,word,1,True,6,1.2349345684051514,2,
R2418,cipían,794,word,1,True,6,0.735623836517334,2,
R2418,sumaré,795,word,2,True,6,1.0608000755310059,1,
R2418,ciperías,796,word,1,True,6,0.8809049129486084,2,
R2418,lailabas,797,word,1,True,6,0.7440817356109619,2,
R2418,temerá,798,word,1,False,6,1.7719621658325195,1,
R2418,burrará,799,word,1,True,6,1.374863862991333,2,
R2418,fundíamos,800,word,2,True,6,1.6209967136383057,1,
R2418,tuplirá,801,word,1,True,6,0.9227979183197021,2,
R2418,ciperá,802,word,1,True,6,1.5099129676818848,2,
R2418,tujiremos,803,word,1,True,6,1.235982894897461,2,
R2418,quijarás,804,word,1,True,6,0.8297779560089111,2,
R2418,retabas,805,word,1,False,6,1.4889819622039795,1,
R2418,zusaban,806,word,1,True,6,0.999035120010376,2,
R2418,quemará,807,word,2,True,6,2.4638257026672363,1,
R2418,imirías,808,word,2,False,6,0.785031795501709,2,
R2418,sauarían,809,word,1,True,6,1.0988621711730957,2,
R2418,cuarría,810,word,1,True,6,1.3229398727416992,2,
R2418,honderemos,811,word,1,True,6,0.7990567684173584,2,
R2418,zusaba,812,word,1,True,6,0.5761020183563232,2,
R2418,hondíamos,813,word,1,True,6,0.6551029682159424,2,
R2418,bigaba,814,word,1,True,6,0.5499441623687744,2,
R2418,comería,815,word,1,False,6,0.8558950424194336,1,
R2418,bimaban,816,word,1,True,6,0.7919638156890869,2,
R2418,sumaban,817,word,1,False,6,0.579841136932373,1,
R2418,toserá,818,word,1,False,6,1.3019888401031494,1,
R2418,cuarriremos,819,word,1,True,6,1.0030090808868408,2,
R2418,bimaré,820,word,1,True,6,0.6772873401641846,2,
R2418,comerían,821,word,2,True,6,1.9980101585388184,1,
R2418,maftábamos,822,word,1,True,6,1.5479848384857178,2,
R2418,bigábamos,823,word,1,True,6,0.8468060493469238,2,
R2418,cenarían,824,word,2,True,6,1.1095860004425049,1,
R2418,cetería,825,word,1,True,6,2.426069974899292,2,
R2418,runaríamos,826,word,1,True,6,1.1529319286346436,2,
R2418,eplaremos,827,word,1,True,6,0.8737993240356445,2,
R2418,cuarrían,828,word,1,True,6,1.403684139251709,2,
R2418,imiremos,829,word,1,True,6,0.9070389270782471,2,
R2418,riterías,830,word,1,True,6,0.7409329414367676,2,
R2418,subirán,831,word,2,True,6,1.6500489711761475,1,
R2418,lailaría,832,word,2,False,6,0.7957768440246582,2,
R2418,subías,833,word,2,True,6,1.0257658958435059,1,
R2418,monceremos,834,word,1,True,6,0.7939581871032715,2,
R2418,temerías,835,word,2,True,6,1.2907228469848633,1,
R2418,bruvirías,836,word,1,True,6,0.7667548656463623,2,
R2418,mardiré,837,word,1,True,6,1.5594100952148438,2,
R2418,lacherían,838,word,1,True,6,1.1528871059417725,2,
R2418,frindían,839,word,1,True,6,0.6699471473693848,2,
R2418,comeríamos,840,word,2,True,6,1.292952060699463,1,
R2418,subirías,841,word,2,True,6,4.5729992389678955,1,
R2418,eplábamos,842,word,1,True,6,1.9250283241271973,2,
R2418,pactaban,843,word,1,False,6,1.2430641651153564,1,
R2418,quijarían,844,word,1,True,6,1.525947093963623,2,
R2418,luchábamos,845,word,1,False,6,2.000225782394409,1,
R2418,focarás,846,word,1,True,6,1.6082580089569092,2,
R2418,gruñíamos,847,word,2,True,6,1.8591077327728271,1,
R2418,anrerían,848,word,1,True,6,1.830564022064209,2,
R2418,luntiremos,849,word,1,True,6,2.466140031814575,2,
R2418,rotaré,850,word,1,False,6,1.2622969150543213,1,
R2418,tujiríamos,851,word,1,True,6,0.7351360321044922,2,
R2418,mertabas,852,word,1,True,6,0.7685959339141846,2,
R2418,vultaremos,853,word,1,True,6,0.650134801864624,2,
R2418,focaríamos,854,word,1,True,6,0.7076411247253418,2,
R2418,bailaría,855,word,2,True,6,1.2151179313659668,1,
R2418,charlábamos,856,word,2,True,6,1.430251121520996,1,
R2418,cenarías,857,word,2,True,6,0.9801788330078125,1,
R2418,riterán,858,word,1,True,6,1.3099572658538818,2,
R2418,luntíamos,859,word,1,True,6,1.791903018951416,2,
R2418,maftaban,860,word,1,True,6,0.7921121120452881,2,
R2418,quijarías,861,word,1,True,6,1.3569989204406738,2,
R2418,burrabas,862,word,1,True,6,1.0532660484313965,2,
R2418,rondarás,863,word,1,False,6,1.3431098461151123,1,
R2418,honderíamos,864,word,1,True,6,0.8641259670257568,2,
R2418,morderías,865,word,2,True,6,1.3881330490112305,1,
R2418,pactaba,866,word,1,False,6,0.9418890476226807,1,
R2418,formará,867,word,2,True,6,1.733048677444458,1,
R2418,formarías,868,word,2,True,6,2.145075798034668,1,
R2418,sumarás,869,word,2,True,6,4.705081939697266,1,
R2418,quemaríamos,870,word,2,True,6,2.205061197280884,1,
R2418,gachabas,871,word,1,True,6,1.0250129699707031,2,
R2418,somerán,872,word,1,True,6,1.464919090270996,2,
R2418,gruñirías,873,word,2,True,6,2.1600091457366943,1,
R2418,zusarían,874,word,1,True,6,4.699136018753052,2,
R2418,cedía,875,word,1,False,6,1.0819048881530762,1,
R2418,retaría,876,word,1,False,6,1.3019170761108398,1,
R2418,luchará,877,word,2,True,6,1.0490071773529053,1,
R2418,cichiremos,878,word,1,True,6,0.9198458194732666,2,
R2418,cetarás,879,word,1,True,6,1.0750372409820557,2,
R2418,barrías,880,word,2,True,6,1.6260316371917725,1,
R2418,tujiré,881,word,1,True,6,1.3530521392822266,2,
R2418,bimaría,882,word,1,True,6,0.9239170551300049,2,
R2418,lachería,883,word,1,True,6,1.0329537391662598,2,
R2418,tujirás,884,word,1,True,6,0.7989568710327148,2,
R2418,cedías,885,word,1,False,6,1.0079009532928467,1,
R2418,mardía,886,word,1,True,6,0.6301901340484619,2,
R2418,mardirá,887,word,1,True,6,0.8159768581390381,2,
R2418,jurarían,888,word,2,True,6,1.716843605041504,1,
R2418,rotarán,889,word,1,False,6,0.7839560508728027,1,
R2418,burrábamos,890,word,1,True,6,1.586129903793335,2,
R2418,gacharás,891,word,1,True,6,0.7243590354919434,2,
R2418,mertaban,892,word,1,True,6,1.1019392013549805,2,
R2418,rayaré,893,word,2,True,6,1.8167738914489746,1,
R2418,toserán,894,word,2,True,6,5.531009674072266,1,
R2418,rimarían,895,word,1,False,6,0.8198268413543701,1,
R2418,sauaría,896,word,1,True,6,1.1195931434631348,2,
R2418,cubrían,897,word,2,True,6,0.9599390029907227,1,
R2418,mordía,898,word,2,True,6,1.2408528327941895,1,
R2418,lorgarán,899,word,2,False,6,1.5240919589996338,2,
R2418,chanrarás,900,word,1,True,6,2.1157350540161133,2,
R2418,sumabas,901,word,2,True,6,1.3220319747924805,1,
R2418,lamerías,902,word,1,False,6,0.8759138584136963,1,
R2418,tuplirán,903,word,1,True,6,0.7669620513916016,2,
R2418,gacharían,904,word,1,True,6,1.692662000656128,2,
R2418,faneríamos,905,word,1,True,6,0.803809642791748,2,
R2418,tujíamos,906,word,1,True,6,0.7859861850738525,2,
R2418,mertará,907,word,1,True,6,1.3319602012634277,2,
R2418,runaré,908,word,1,True,6,0.9839181900024414,2,
R2418,besabas,909,word,2,True,6,0.9608688354492188,1,
R2418,quijaban,910,word,1,True,6,0.9580841064453125,2,
R2418,ritían,911,word,1,True,6,0.918936014175415,2,
R2418,unían,912,word,2,True,6,0.9900851249694824,1,
R2418,rimaba,913,word,1,False,6,1.4950520992279053,1,
R2418,obrarías,914,word,2,True,6,3.755042791366577,1,
R2418,cenaría,915,word,2,True,6,1.7338852882385254,1,
R2418,rayaba,916,word,2,True,6,0.9949822425842285,1,
R2418,sauarás,917,word,1,True,6,2.219197988510132,2,
R2418,vultarían,918,word,1,True,6,0.6817128658294678,2,
R2418,cuarrirán,919,word,1,True,6,1.1338517665863037,2,
R2418,cumplirías,920,word,2,True,6,0.8612868785858154,1,
R2418,tosíamos,921,word,2,True,6,1.5170259475708008,1,
R2418,maftaríamos,922,word,1,True,6,2.194936752319336,2,
R2418,burraría,923,word,1,True,6,0.6619141101837158,2,
R2418,pactaría,924,word,1,False,6,1.0058832168579102,1,
R2418,mardirás,925,word,1,True,6,1.4529829025268555,2,
R2418,comeremos,926,word,2,True,6,2.591799259185791,1,
R2418,cederíamos,927,word,1,False,6,2.4819891452789307,1,
R2418,vendía,928,word,2,True,6,2.7639663219451904,1,
R2418,eplará,929,word,1,True,6,0.7909629344940186,2,
R2418,porería,930,word,1,True,6,1.0173282623291016,2,
R2418,cenaba,931,word,2,True,6,0.9140191078186035,1,
R2418,mardías,932,word,1,True,6,0.7718989849090576,2,
R2418,pactaremos,933,word,1,False,6,0.8169500827789307,1,
R2418,pavábamos,934,word,1,True,6,2.2980048656463623,2,
R2418,lucharíamos,935,word,1,False,6,4.686380863189697,1,
R2418,correría,936,word,2,True,6,1.9367930889129639,1,
R2418,mardiríamos,937,word,1,True,7,3.158869981765747,2,
R2418,lorgaría,938,word,2,False,7,1.062943935394287,2,
R2418,sindaría,939,word,1,True,7,3.0340092182159424,2,
R2418,bruvirán,940,word,1,True,7,0.8481159210205078,2,
R2418,porerán,941,word,1,True,7,0.7689480781555176,2,
R2418,cedería,942,word,1,False,7,1.225877046585083,1,
R2418,lameríamos,943,word,1,False,7,1.0958359241485596,1,
R2418,lacheré,944,word,1,True,7,0.7158858776092529,2,
R2418,lucharían,945,word,2,True,7,1.0308153629302979,1,
R2418,frinderían,946,word,1,True,7,1.3140790462493896,2,
R2418,charlarán,947,word,2,True,7,3.8660199642181396,1,
R2418,ceflías,948,word,1,True,7,0.7742471694946289,2,
R2418,cuarriríamos,949,word,1,True,7,1.1779918670654297,2,
R2418,rimaré,950,word,1,False,7,1.4820358753204346,1,
R2418,bigabas,951,word,1,True,7,1.6210312843322754,2,
R2418,lacheríamos,952,word,1,True,7,1.1889421939849854,2,
R2418,quijará,953,word,1,True,7,2.6159768104553223,2,
R2418,sesía,954,word,p,False,7,176.63079714775085,2,
R2418,ceterá,955,word,1,True,7,1.2011840343475342,2,
R2418,sindaba,956,word,1,True,7,1.1782019138336182,2,
R2418,arderé,957,word,1,False,7,1.1430819034576416,1,
R2418,coserían,958,word,1,False,7,2.520987033843994,1,
R2418,temeré,959,word,1,False,7,1.4848718643188477,1,
R2418,quijaríamos,960,word,1,True,7,0.8806159496307373,2,
R2418,fundías,961,word,1,False,7,1.169849157333374,1,
R2418,partirían,962,word,1,False,7,1.479966163635254,1,
R2418,pavaban,963,word,1,True,7,1.9870619773864746,2,
R2418,cisaríamos,964,word,1,True,7,0.8559589385986328,2,
R2418,sumarían,965,word,2,True,7,2.5122151374816895,1,
R2418,tuplirías,966,word,1,True,7,0.848961591720581,2,
R2418,fundían,967,word,2,True,7,1.5509140491485596,1,
R2418,eplarán,968,word,1,True,7,0.7209873199462891,2,
R2418,somíamos,969,word,1,True,7,1.362084150314331,2,
R2418,runaría,970,word,1,True,7,1.0839242935180664,2,
R2418,cubrirían,971,word,2,True,7,1.7990789413452148,1,
R2418,rondarías,972,word,1,False,7,1.6948480606079102,1,
R2418,ceterás,973,word,1,True,7,0.945044994354248,2,
R2418,lamerán,974,word,1,False,7,0.6950018405914307,1,
R2418,mordías,975,word,2,True,7,1.331049919128418,1,
R2418,maftarás,976,word,1,True,7,0.807703971862793,2,
R2418,narraba,977,word,2,True,7,1.099942684173584,1,
R2418,obrarían,978,word,2,True,7,2.5019919872283936,1,
R2418,coseré,979,word,2,True,7,2.303142786026001,1,
R2418,rayábamos,980,word,2,True,7,1.0400331020355225,1,
R2418,cosían,981,word,2,True,7,0.9840099811553955,1,
R2418,seserás,982,word,1,True,7,0.852827787399292,2,
R2418,lorgaríamos,983,word,1,True,7,2.149915933609009,2,
R2418,pactarás,984,word,1,False,7,2.5130422115325928,1,
R2418,bailará,985,word,2,True,7,0.8700418472290039,1,
R2418,chanraría,986,word,1,True,7,1.281999111175537,2,
R2418,charlaremos,987,word,1,False,7,0.7089600563049316,1,
R2418,gruñirás,988,word,2,True,7,1.6922218799591064,1,
R2418,cuarriría,989,word,1,True,7,1.1769380569458008,2,
R2418,zusábamos,990,word,1,True,7,0.6329138278961182,2,
R2418,cumplirán,991,word,2,True,7,1.1310770511627197,1,
R2418,sufrirá,992,word,2,True,7,1.7427971363067627,1,
R2418,cumpliría,993,word,2,True,7,2.6098718643188477,1,
R2418,cefleré,994,word,1,True,7,2.638127088546753,2,
R2418,cubrirán,995,word,2,True,7,2.318113088607788,1,
R2418,ceterías,996,word,1,True,7,0.7148959636688232,2,
R2418,bimábamos,997,word,1,True,7,1.2930240631103516,2,
R2418,runaremos,998,word,1,True,7,0.8378679752349854,2,
R2418,ceteríamos,999,word,1,True,7,1.2468910217285156,2,
R2418,gachaban,1000,word,1,True,7,0.7871339321136475,2,
R2418,lamíamos,1001,word,1,False,7,1.24784517288208,1,
R2418,subiríamos,1002,word,1,False,7,1.5069777965545654,1,
R2418,formabas,1003,word,2,True,7,2.5722429752349854,1,
R2418,rondaré,1004,word,1,False,7,1.0027759075164795,1,
R2418,rayaban,1005,word,2,True,7,0.9849081039428711,1,
R2418,tujirá,1006,word,1,True,7,0.7559711933135986,2,
R2418,bailaríamos,1007,word,2,True,7,1.0441582202911377,1,
R2418,seserías,1008,word,1,True,7,0.9748640060424805,2,
R2418,cosería,1009,word,2,True,7,1.1589932441711426,1,
R2418,faltaba,1010,word,2,True,7,0.9369771480560303,1,
R2418,eplaría,1011,word,1,True,7,0.6889526844024658,2,
R2418,faltaríamos,1012,word,2,True,7,1.0769858360290527,1,
R2418,sufrirían,1013,word,2,True,7,1.629927158355713,1,
R2418,jurarás,1014,word,2,True,7,4.07805323600769,1,
R2418,mardirán,1015,word,1,True,7,0.8699350357055664,2,
R2418,casaríamos,1016,word,2,True,7,1.294909954071045,1,
R2418,cedíamos,1017,word,1,False,7,0.9379520416259766,1,
R2418,fanerá,1018,word,1,True,7,1.0489401817321777,2,
R2418,nadabas,1019,word,1,False,7,1.5586647987365723,1,
R2418,cubrirías,1020,word,2,True,7,2.3499319553375244,1,
R2418,tujían,1021,word,1,True,7,0.8040378093719482,2,
R2418,narraban,1022,word,1,False,7,1.7679131031036377,1,
R2418,faltarán,1023,word,2,True,7,1.2171778678894043,1,
R2418,luntirías,1024,word,1,True,7,0.998725175857544,2,
R2418,burraríamos,1025,word,1,True,7,1.234908103942871,2,
R2418,venderemos,1026,word,2,True,7,1.1351139545440674,1,
R2418,lachíamos,1027,word,1,True,7,1.0469067096710205,2,
R2418,charlaban,1028,word,2,True,7,1.283958911895752,1,
R2418,runarían,1029,word,1,True,7,0.8360209465026855,2,
R2418,retaríamos,1030,word,1,False,7,1.5199899673461914,1,
R2418,mertaré,1031,word,1,True,7,2.1729211807250977,2,
R2418,retarás,1032,word,1,False,7,0.9400150775909424,1,
R2418,vultabas,1033,word,1,True,7,0.676837682723999,2,
R2418,sindarías,1034,word,1,True,7,0.9152030944824219,2,
R2418,arderá,1035,word,1,False,7,1.737091064453125,1,
R2418,chanraré,1036,word,1,True,7,1.0818500518798828,2,
R2418,lorgarás,1037,word,1,True,7,3.0099408626556396,2,
R2418,rayaría,1038,word,2,True,7,1.1244041919708252,1,
R2418,lorgará,1039,word,1,True,7,1.4683949947357178,2,
R2418,partiré,1040,word,2,True,7,1.499981164932251,1,
R2418,cederán,1041,word,1,False,7,1.7359120845794678,1,
R2418,prenderé,1042,word,2,True,7,1.3850388526916504,1,
R2418,correrá,1043,word,2,True,7,1.386847972869873,1,
R2418,gachará,1044,word,1,True,7,0.8016986846923828,2,
R2418,prendían,1045,word,2,True,7,1.3600819110870361,1,
R2418,narraría,1046,word,2,True,7,1.0176386833190918,1,
R2418,meterías,1047,word,2,True,7,1.2609429359436035,1,
R2418,anrerá,1048,word,1,True,7,1.072091817855835,2,
R2418,besaba,1049,word,2,True,7,1.0140438079833984,1,
R2418,nadarías,1050,word,1,False,7,1.4099860191345215,1,
R2418,cisaría,1051,word,1,True,7,0.763981819152832,2,
R2418,lailábamos,1052,word,1,True,7,0.6929910182952881,2,
R2418,zusarás,1053,word,1,True,7,0.5909280776977539,2,
R2418,luchaba,1054,word,2,True,7,1.017941951751709,1,
R2418,cichirán,1055,word,1,True,7,0.6585659980773926,2,
R2418,cisaban,1056,word,1,True,7,0.6971049308776855,2,
R2418,venderé,1057,word,2,True,7,0.8221490383148193,1,
R2418,rotaban,1058,word,1,False,7,0.6870038509368896,1,
R2418,quemaría,1059,word,2,True,7,1.0769169330596924,1,
R2418,lachían,1060,word,1,True,7,1.0149238109588623,2,
R2418,maftaremos,1061,word,1,True,7,0.7758998870849609,2,
R2418,prendía,1062,word,2,True,7,0.9558210372924805,1,
R2418,chanrarán,1063,word,1,True,7,0.9380018711090088,2,
R2418,jurarías,1064,word,2,True,7,1.075049877166748,1,
R2418,lailaba,1065,word,1,True,7,0.6267797946929932,2,
R2418,cisarías,1066,word,1,True,7,0.7328550815582275,2,
R2418,retarías,1067,word,1,False,7,1.094836950302124,1,
R2418,lorgaré,1068,word,2,False,7,0.9878990650177002,2,
R2418,lamerá,1069,word,1,False,7,0.8279962539672852,1,
R2418,lailaremos,1070,word,1,True,7,0.7060699462890625,2,
R2418,bigaban,1071,word,1,True,7,0.810081958770752,2,
R2418,bailabas,1072,word,2,True,7,1.1919479370117188,1,
R2418,retarían,1073,word,1,False,7,1.3228678703308105,1,
R2418,fundiremos,1074,word,2,True,7,1.2270541191101074,1,
R2418,nadaría,1075,word,2,True,7,1.173926830291748,1,
R2418,mertaría,1076,word,1,True,7,1.5667858123779297,2,
R2418,ceterían,1077,word,1,True,7,1.5490310192108154,2,
R2418,sindaremos,1078,word,1,True,7,0.898094892501831,2,
R2418,subirá,1079,word,2,True,7,1.0349841117858887,1,
R2418,seseré,1080,word,1,True,7,1.0009729862213135,2,
R2418,ceflían,1081,word,1,True,7,0.9192349910736084,2,
R2418,rayaremos,1082,word,2,True,7,1.5008728504180908,1,
R2418,frindería,1083,word,1,True,7,1.0770370960235596,2,
R2418,pactarán,1084,word,1,False,7,0.7320520877838135,1,
R2418,riteré,1085,word,1,True,7,0.8761179447174072,2,
R2418,cichirías,1086,word,1,True,7,0.5818989276885986,2,
R2418,vultábamos,1087,word,1,True,7,0.6189680099487305,2,
R2418,maftaba,1088,word,1,True,7,0.6591818332672119,2,
R2418,besarás,1089,word,2,True,7,0.8478591442108154,1,
R2418,luntían,1090,word,1,True,7,0.8960390090942383,2,
R2418,porerían,1091,word,1,True,7,1.087853193283081,2,
R2418,sufriría,1092,word,2,True,7,0.8349130153656006,1,
