participant,stimuli,trialNum,target_type,response,correct,block,reaction_time,trigger,
R2417,cenaban,1,word,1,False,1,0.864966869354248,1,
R2417,gruñiré,2,word,1,False,1,0.9200069904327393,1,
R2417,cumpliríamos,3,word,2,True,1,1.3202502727508545,1,
R2417,riterías,4,word,1,True,1,1.1670401096343994,2,
R2417,fundían,5,word,2,True,1,0.9458582401275635,1,
R2417,porías,6,word,1,True,1,1.1819369792938232,2,
R2417,lacherán,7,word,1,True,1,1.8039062023162842,2,
R2417,comían,8,word,2,True,1,0.5898571014404297,1,
R2417,obrarías,9,word,2,True,1,0.8409609794616699,1,
R2417,mardirán,10,word,1,True,1,0.8849592208862305,2,
R2417,lucharán,11,word,2,True,1,0.5809862613677979,1,
R2417,lacheríamos,12,word,1,True,1,1.1654009819030762,2,
R2417,ceterías,13,word,1,True,1,1.0039548873901367,2,
R2417,lamerás,14,word,1,False,1,0.787970781326294,1,
R2417,tujirá,15,word,1,True,1,0.7028861045837402,2,
R2417,sindaremos,16,word,1,True,1,1.0251140594482422,2,
R2417,bigarías,17,word,1,True,1,2.237931966781616,2,
R2417,zusará,18,word,1,True,1,0.9984610080718994,2,
R2417,tuplías,19,word,1,True,1,1.4039289951324463,2,
R2417,pavabas,20,word,1,True,1,1.1357932090759277,2,
R2417,obraremos,21,word,2,True,1,0.8260188102722168,1,
R2417,cedía,22,word,1,False,1,1.118924856185913,1,
R2417,burraba,23,word,1,True,1,1.0819778442382812,2,
R2417,obrarían,24,word,2,True,1,0.7179787158966064,1,
R2417,cichías,25,word,2,False,1,1.5529108047485352,2,
R2417,lailarán,26,word,1,True,1,0.8690118789672852,2,
R2417,poría,27,word,2,False,1,0.7969739437103271,2,
R2417,cubrirías,28,word,1,False,1,0.6281139850616455,1,
R2417,faltarán,29,word,2,True,1,0.9749510288238525,1,
R2417,cetarían,30,word,1,True,1,1.0139071941375732,2,
R2417,chanraré,31,word,1,True,1,0.8860342502593994,2,
R2417,rondarás,32,word,1,False,1,1.6469969749450684,1,
R2417,besaba,33,word,2,True,1,0.6689119338989258,1,
R2417,eplaban,34,word,1,True,1,0.8889257907867432,2,
R2417,venderían,35,word,2,True,1,1.5476670265197754,1,
R2417,comeré,36,word,2,True,1,0.7768898010253906,1,
R2417,nadarían,37,word,2,True,1,1.4998199939727783,1,
R2417,pactaríamos,38,word,1,False,1,1.1291570663452148,1,
R2417,sauarías,39,word,1,True,1,1.3128669261932373,2,
R2417,barrerás,40,word,2,True,1,1.001063346862793,1,
R2417,lacherían,41,word,1,True,1,0.9089457988739014,2,
R2417,comería,42,word,2,True,1,0.7119719982147217,1,
R2417,quemábamos,43,word,2,True,1,0.9488368034362793,1,
R2417,bimaría,44,word,1,True,1,0.8340401649475098,2,
R2417,lameríamos,45,word,1,False,1,0.8347611427307129,1,
R2417,cichiríamos,46,word,1,True,1,0.9773120880126953,2,
R2417,luchaba,47,word,2,True,1,0.7711882591247559,1,
R2417,focabas,48,word,2,False,1,0.7596302032470703,2,
R2417,gruñirá,49,word,2,True,1,2.4814279079437256,1,
R2417,correrán,50,word,2,True,1,1.0061099529266357,1,
R2417,honderían,51,word,1,True,1,0.8433117866516113,2,
R2417,charlaríamos,52,word,1,False,1,3.3971970081329346,1,
R2417,pavaría,53,word,2,False,1,2.100733995437622,2,
R2417,frinderá,54,word,1,True,1,1.5011560916900635,2,
R2417,sumarán,55,word,2,True,1,0.8037996292114258,1,
R2417,gruñíamos,56,word,2,True,1,1.0712902545928955,1,
R2417,narraremos,57,word,1,False,1,0.9511768817901611,1,
R2417,cuarrirán,58,word,1,True,1,0.8404378890991211,2,
R2417,luntirás,59,word,1,True,1,0.7991960048675537,2,
R2417,bimarían,60,word,1,True,1,0.7801260948181152,2,
R2417,porería,61,word,1,True,1,0.6199910640716553,2,
R2417,tupliremos,62,word,1,True,1,0.6285390853881836,2,
R2417,unirías,63,word,1,False,1,1.549206018447876,1,
R2417,jurará,64,word,2,True,1,0.8551552295684814,1,
R2417,metía,65,word,2,True,1,0.8302130699157715,1,
R2417,imirás,66,word,1,True,1,0.6339128017425537,2,
R2417,cortarías,67,word,2,True,1,0.9010441303253174,1,
R2417,moncerán,68,word,1,True,1,2.624037742614746,2,
R2417,obrarás,69,word,2,True,1,0.6638877391815186,1,
R2417,cetarías,70,word,1,True,1,0.7518091201782227,2,
R2417,unirían,71,word,2,True,1,1.5090980529785156,1,
R2417,ceflerías,72,word,1,True,1,0.7188742160797119,2,
R2417,sesías,73,word,2,False,1,1.3408281803131104,2,
R2417,pactarás,74,word,1,False,1,0.7960081100463867,1,
R2417,cenaremos,75,word,2,True,1,0.9569900035858154,1,
R2417,sumabas,76,word,2,True,1,0.5959889888763428,1,
R2417,vultabas,77,word,1,True,1,1.0839388370513916,2,
R2417,fanerán,78,word,1,True,1,0.9069490432739258,2,
R2417,eplarías,79,word,1,True,1,1.172943115234375,2,
R2417,narrará,80,word,2,True,1,1.1290948390960693,1,
R2417,rotabas,81,word,1,False,1,0.7869188785552979,1,
R2417,cederían,82,word,2,True,1,1.4339337348937988,1,
R2417,cosían,83,word,1,False,1,1.1228909492492676,1,
R2417,subiremos,84,word,2,True,1,1.277876853942871,1,
R2417,ardíamos,85,word,1,False,1,1.5690569877624512,1,
R2417,imíamos,86,word,1,True,1,0.915999174118042,2,
R2417,porerás,87,word,1,True,1,0.7860438823699951,2,
R2417,poreríamos,88,word,1,True,1,0.9579000473022461,2,
R2417,chanrarás,89,word,1,True,1,0.616955041885376,2,
R2417,vultará,90,word,1,True,1,1.074012041091919,2,
R2417,gruñirías,91,word,1,False,1,0.9899671077728271,1,
R2417,unirá,92,word,2,True,1,0.7646780014038086,1,
R2417,imiríamos,93,word,1,True,1,2.2327961921691895,2,
R2417,hondías,94,word,1,True,1,0.7173600196838379,2,
R2417,ciperá,95,word,1,True,1,0.640887975692749,2,
R2417,lucharemos,96,word,2,True,1,0.8838961124420166,1,
R2417,mertarás,97,word,1,True,1,1.1339929103851318,2,
R2417,cipíamos,98,word,1,True,1,0.5143098831176758,2,
R2417,uniré,99,word,2,True,1,0.6260387897491455,1,
R2417,mordían,100,word,2,True,1,0.8319871425628662,1,
R2417,casarían,101,word,2,True,1,0.6857450008392334,1,
R2417,cenaríamos,102,word,2,True,1,2.4960572719573975,1,
R2417,unían,103,word,2,True,1,0.915877103805542,1,
R2417,partiría,104,word,1,False,1,1.2997808456420898,1,
R2417,casabas,105,word,1,False,1,1.2301359176635742,1,
R2417,gruñirían,106,word,2,True,1,2.7560338973999023,1,
R2417,moncían,107,word,1,True,1,1.0195488929748535,2,
R2417,rotábamos,108,word,2,True,1,3.573306083679199,1,
R2417,monceríamos,109,word,1,True,1,0.8209981918334961,2,
R2417,tujirás,110,word,1,True,1,0.9648051261901855,2,
R2417,coserían,111,word,2,True,1,1.0778260231018066,1,
R2417,lucharía,112,word,2,True,1,0.7671411037445068,1,
R2417,cuarríamos,113,word,1,True,1,0.7189781665802002,2,
R2417,ceflían,114,word,1,True,1,1.3726999759674072,2,
R2417,faneré,115,word,1,True,1,0.7520608901977539,2,
R2417,focará,116,word,1,True,1,0.9362070560455322,2,
R2417,eplarían,117,word,1,True,1,0.8279991149902344,2,
R2417,bimábamos,118,word,1,True,1,1.2101490497589111,2,
R2417,mertaban,119,word,1,True,1,0.9488990306854248,2,
R2417,charlaría,120,word,2,True,1,1.1050770282745361,1,
R2417,anrerías,121,word,1,True,1,0.928131103515625,2,
R2417,eplaba,122,word,1,True,1,0.7958459854125977,2,
R2417,sumaba,123,word,2,True,1,0.6957340240478516,1,
R2417,ardían,124,word,2,True,1,0.9529168605804443,1,
R2417,maftabas,125,word,1,True,1,0.744818925857544,2,
R2417,eplaríamos,126,word,1,True,1,0.6370799541473389,2,
R2417,gacharán,127,word,2,False,1,0.8590240478515625,2,
R2417,barría,128,word,2,True,1,1.0199639797210693,1,
R2417,comeríamos,129,word,2,True,1,0.992882251739502,1,
R2417,chanraban,130,word,1,True,1,1.641028881072998,2,
R2417,cefleremos,131,word,1,True,1,0.6214148998260498,2,
R2417,ardías,132,word,2,True,1,1.326758861541748,1,
R2417,sindaría,133,word,1,True,1,0.8240478038787842,2,
R2417,sesían,134,word,1,True,1,1.0570061206817627,2,
R2417,sauabas,135,word,1,True,1,0.7519760131835938,2,
R2417,toseré,136,word,2,True,1,0.861008882522583,1,
R2417,bigaban,137,word,1,True,1,0.6980409622192383,2,
R2417,luntían,138,word,1,True,1,0.7449641227722168,2,
R2417,subiré,139,word,2,True,1,1.2919330596923828,1,
R2417,cumplirá,140,word,2,True,1,1.7990608215332031,1,
R2417,pavaríamos,141,word,1,True,1,0.8640580177307129,2,
R2417,cisaban,142,word,1,True,1,0.9010202884674072,2,
R2417,vultaremos,143,word,1,True,1,0.7033038139343262,2,
R2417,mardiríamos,144,word,1,True,1,1.4901950359344482,2,
R2417,cortaré,145,word,2,True,1,0.6966571807861328,1,
R2417,uniremos,146,word,2,True,1,0.847801685333252,1,
R2417,sauaba,147,word,1,True,1,0.7600722312927246,2,
R2417,rayaré,148,word,1,False,1,0.6517670154571533,1,
R2417,lacherá,149,word,1,True,1,1.1618998050689697,2,
R2417,juraría,150,word,2,True,1,0.9659888744354248,1,
R2417,cichíamos,151,word,1,True,1,1.150007724761963,2,
R2417,bailarás,152,word,2,True,1,1.119905948638916,1,
R2417,rotaba,153,word,2,True,1,0.6027200222015381,1,
R2417,cetía,154,word,1,True,1,0.6244351863861084,2,
R2417,prenderé,155,word,2,True,1,0.7649927139282227,1,
R2417,faltarás,156,word,2,True,1,0.6998870372772217,1,
R2417,eplaría,157,word,1,True,2,0.9040138721466064,2,
R2417,tuplíamos,158,word,1,True,2,0.6749100685119629,2,
R2417,faltarían,159,word,2,True,2,0.6949732303619385,1,
R2417,arderemos,160,word,1,False,2,1.5759711265563965,1,
R2417,cisarán,161,word,2,False,2,0.9428973197937012,2,
R2417,fanerá,162,word,1,True,2,1.2949140071868896,2,
R2417,sufriría,163,word,2,True,2,0.6319286823272705,1,
R2417,retarás,164,word,1,False,2,1.1617991924285889,1,
R2417,partirá,165,word,2,True,2,1.2559380531311035,1,
R2417,poríamos,166,word,1,True,2,1.792841911315918,2,
R2417,riteremos,167,word,1,True,2,1.0767271518707275,2,
R2417,seserá,168,word,1,True,2,0.9040911197662354,2,
R2417,jurarán,169,word,2,True,2,0.7487480640411377,1,
R2417,gruñiría,170,word,2,True,2,1.0789330005645752,1,
R2417,rayabas,171,word,2,True,2,0.7828001976013184,1,
R2417,bailábamos,172,word,2,True,2,0.8201918601989746,1,
R2417,arderían,173,word,1,False,2,0.7878289222717285,1,
R2417,cuarriríamos,174,word,1,True,2,1.0259053707122803,2,
R2417,toserías,175,word,2,True,2,0.8477919101715088,1,
R2417,lamerías,176,word,2,True,2,1.1276381015777588,1,
R2417,frindía,177,word,2,False,2,1.1379499435424805,2,
R2417,porerían,178,word,2,False,2,1.20601224899292,2,
R2417,tujirán,179,word,1,True,2,0.7520570755004883,2,
R2417,burrarías,180,word,1,True,2,1.1227917671203613,2,
R2417,cefleríamos,181,word,1,True,2,0.8800733089447021,2,
R2417,vultarán,182,word,1,True,2,0.828747034072876,2,
R2417,fundías,183,word,2,True,2,1.0239391326904297,1,
R2417,cubriremos,184,word,2,True,2,0.9132747650146484,1,
R2417,chanraríamos,185,word,1,True,2,1.1129817962646484,2,
R2417,quijaríamos,186,word,1,True,2,1.6209712028503418,2,
R2417,riterá,187,word,1,True,2,0.9298660755157471,2,
R2417,temeríamos,188,word,2,True,2,3.349979877471924,1,
R2417,imiremos,189,word,1,True,2,1.6499640941619873,2,
R2417,poreré,190,word,1,True,2,0.8939459323883057,2,
R2417,obrarán,191,word,2,True,2,0.7369108200073242,1,
R2417,pactaría,192,word,1,False,2,0.9449288845062256,1,
R2417,temíamos,193,word,2,True,2,1.2890946865081787,1,
R2417,charlaremos,194,word,2,True,2,4.055800914764404,1,
R2417,vultaré,195,word,1,True,2,0.7876851558685303,2,
R2417,mertará,196,word,1,True,2,1.2878401279449463,2,
R2417,ciperías,197,word,1,True,2,0.6531209945678711,2,
R2417,gruñirás,198,word,1,False,2,1.6410267353057861,1,
R2417,cuarrirían,199,word,1,True,2,1.101025104522705,2,
R2417,luchábamos,200,word,2,True,2,0.8759560585021973,1,
R2417,subirías,201,word,1,False,2,1.4249000549316406,1,
R2417,sufrían,202,word,2,True,2,0.6790549755096436,1,
R2417,honderás,203,word,1,True,2,0.7659339904785156,2,
R2417,quemarán,204,word,2,True,2,1.2738780975341797,1,
R2417,pactarías,205,word,1,False,2,0.6890151500701904,1,
R2417,runarían,206,word,1,True,2,1.7257778644561768,2,
R2417,pactará,207,word,1,False,2,1.552056074142456,1,
R2417,obrabas,208,word,2,True,2,0.69632887840271,1,
R2417,partías,209,word,1,False,2,1.045821189880371,1,
R2417,sufrirían,210,word,2,True,2,0.7338171005249023,1,
R2417,monceré,211,word,2,False,2,1.9140050411224365,2,
R2417,cichirán,212,word,1,True,2,0.9650449752807617,2,
R2417,besaré,213,word,2,True,2,0.6549530029296875,1,
R2417,juraba,214,word,2,True,2,0.7620189189910889,1,
R2417,bruvirían,215,word,1,True,2,0.5490386486053467,2,
R2417,moncías,216,word,1,True,2,0.8260259628295898,2,
R2417,cisábamos,217,word,2,False,2,2.5018692016601562,2,
R2417,focaremos,218,word,2,False,2,1.0839629173278809,2,
R2417,mardían,219,word,1,True,2,0.9149079322814941,2,
R2417,faltabas,220,word,2,True,2,0.9148120880126953,1,
R2417,vultaría,221,word,1,True,2,0.6389970779418945,2,
R2417,cuarriremos,222,word,1,True,2,0.6878499984741211,2,
R2417,sufrirás,223,word,2,True,2,0.8498990535736084,1,
R2417,maftaban,224,word,1,True,2,0.8379671573638916,2,
R2417,prenderás,225,word,2,True,2,1.3822107315063477,1,
R2417,quemaría,226,word,2,True,2,0.765059232711792,1,
R2417,riterían,227,word,1,True,2,0.9830708503723145,2,
R2417,frindían,228,word,2,False,2,1.174715280532837,2,
R2417,coseré,229,word,2,True,2,0.7870681285858154,1,
R2417,bailaban,230,word,2,True,2,0.5948898792266846,1,
R2417,sindarían,231,word,1,True,2,0.8549339771270752,2,
R2417,venderás,232,word,2,True,2,0.7497179508209229,1,
R2417,formarías,233,word,2,True,2,1.0770509243011475,1,
R2417,lamían,234,word,1,False,2,1.0548129081726074,1,
R2417,bigarán,235,word,1,True,2,0.968944787979126,2,
R2417,chanraremos,236,word,1,True,2,0.6290030479431152,2,
R2417,coserá,237,word,2,True,2,1.0800540447235107,1,
R2417,runará,238,word,2,False,2,1.8449020385742188,2,
R2417,lorgará,239,word,1,True,2,1.7250471115112305,2,
R2417,pavarán,240,word,1,True,2,0.9307651519775391,2,
R2417,lorgarías,241,word,1,True,2,3.3779611587524414,2,
R2417,lachía,242,word,1,True,2,0.8729128837585449,2,
R2417,galarás,243,word,1,True,2,1.2458891868591309,2,
R2417,ceteré,244,word,1,True,2,0.766779899597168,2,
R2417,sindaba,245,word,1,True,2,0.671673059463501,2,
R2417,frinderé,246,word,2,False,2,1.0589067935943604,2,
R2417,narraban,247,word,1,False,2,0.6479768753051758,1,
R2417,metían,248,word,2,True,2,0.8099021911621094,1,
R2417,tupliría,249,word,1,True,2,0.7019648551940918,2,
R2417,fundirás,250,word,1,False,2,0.855989933013916,1,
R2417,sindarías,251,word,1,True,2,0.6049380302429199,2,
R2417,sindabas,252,word,1,True,2,0.6478750705718994,2,
R2417,metías,253,word,2,True,2,0.7053639888763428,1,
R2417,rimaríamos,254,word,1,False,2,0.7959740161895752,1,
R2417,formarán,255,word,2,True,2,0.6458847522735596,1,
R2417,moncerían,256,word,1,True,2,0.6449830532073975,2,
R2417,juraríamos,257,word,1,False,2,0.8821699619293213,1,
R2417,gacharemos,258,word,1,True,2,1.6506052017211914,2,
R2417,besarían,259,word,2,True,2,0.6728470325469971,1,
R2417,eplarán,260,word,1,True,2,0.9459331035614014,2,
R2417,temías,261,word,2,True,2,0.7289888858795166,1,
R2417,someré,262,word,1,True,2,1.438960313796997,2,
R2417,narrabas,263,word,2,True,2,0.6218781471252441,1,
R2417,rayaba,264,word,2,True,2,1.220870018005371,1,
R2417,charlarían,265,word,2,True,2,1.229768991470337,1,
R2417,subirás,266,word,2,True,2,1.0107917785644531,1,
R2417,fundirían,267,word,1,False,2,0.9219379425048828,1,
R2417,uníamos,268,word,2,True,2,0.6858429908752441,1,
R2417,retarían,269,word,1,False,2,1.3636260032653809,1,
R2417,seseré,270,word,1,True,2,0.903019905090332,2,
R2417,cisarás,271,word,1,True,2,0.6569621562957764,2,
R2417,quijaremos,272,word,2,False,2,1.28619384765625,2,
R2417,zusábamos,273,word,1,True,2,1.0413281917572021,2,
R2417,lachería,274,word,1,True,2,0.7075409889221191,2,
R2417,somíamos,275,word,1,True,2,0.9379608631134033,2,
R2417,ardería,276,word,1,False,2,0.5768699645996094,1,
R2417,formaríamos,277,word,2,True,2,2.9336729049682617,1,
R2417,faltaba,278,word,2,True,2,0.6329131126403809,1,
R2417,tosía,279,word,2,True,2,1.0470681190490723,1,
R2417,quijará,280,word,1,True,2,1.0389580726623535,2,
R2417,rayarías,281,word,1,False,2,1.0108790397644043,1,
R2417,ritías,282,word,1,True,2,0.6939756870269775,2,
R2417,imirías,283,word,1,True,2,1.2088677883148193,2,
R2417,sindaríamos,284,word,1,True,2,0.6309869289398193,2,
R2417,temerás,285,word,2,True,2,0.7799012660980225,1,
R2417,somías,286,word,2,False,2,1.0798368453979492,2,
R2417,ceflerá,287,word,2,False,2,1.7350611686706543,2,
R2417,juraremos,288,word,2,True,2,1.6259558200836182,1,
R2417,eplaremos,289,word,1,True,2,0.718991756439209,2,
R2417,bruvirías,290,word,1,True,2,0.7879679203033447,2,
R2417,quijarás,291,word,1,True,2,0.8008978366851807,2,
R2417,bruvías,292,word,1,True,2,0.6897878646850586,2,
R2417,eplaré,293,word,1,True,2,0.8490049839019775,2,
R2417,cenarían,294,word,2,True,2,0.85282301902771,1,
R2417,lailaría,295,word,1,True,2,0.7059078216552734,2,
R2417,nadará,296,word,2,True,2,1.0719871520996094,1,
R2417,lamería,297,word,2,True,2,1.0435090065002441,1,
R2417,morderé,298,word,2,True,2,1.0190062522888184,1,
R2417,sindará,299,word,1,True,2,0.6500029563903809,2,
R2417,retarías,300,word,1,False,2,0.6388671398162842,1,
R2417,mertaría,301,word,1,True,2,0.9390168190002441,2,
R2417,tuplía,302,word,1,True,2,0.650054931640625,2,
R2417,retaban,303,word,1,False,2,0.8867549896240234,1,
R2417,ceterán,304,word,1,True,2,0.652897834777832,2,
R2417,jurarías,305,word,2,True,2,1.2140491008758545,1,
R2417,burrarás,306,word,1,True,2,0.8379940986633301,2,
R2417,correríamos,307,word,1,False,2,2.9509339332580566,1,
R2417,uniría,308,word,2,True,2,1.2220196723937988,1,
R2417,tujiría,309,word,1,True,2,0.70389723777771,2,
R2417,sauaré,310,word,1,True,2,0.9580807685852051,2,
R2417,cetaré,311,word,1,True,2,0.7558920383453369,2,
R2417,fanería,312,word,1,True,2,0.4788699150085449,2,
R2417,rotarías,313,word,1,False,3,2.543876886367798,1,
R2417,porían,314,word,1,True,3,1.1430439949035645,2,
R2417,bigará,315,word,1,True,3,0.6171491146087646,2,
R2417,lamías,316,word,1,False,3,0.937014102935791,1,
R2417,gachaba,317,word,2,False,3,0.8638899326324463,2,
R2417,corría,318,word,2,True,3,0.728039026260376,1,
R2417,meteríamos,319,word,2,True,3,1.8148200511932373,1,
R2417,burrarán,320,word,1,True,3,1.2929301261901855,2,
R2417,galaríamos,321,word,2,False,3,1.707045078277588,2,
R2417,cisarías,322,word,1,True,3,0.7019350528717041,2,
R2417,frinderíamos,323,word,1,True,3,1.8310308456420898,2,
R2417,venderán,324,word,2,True,3,1.6621158123016357,1,
R2417,bimaríamos,325,word,1,True,3,0.732943058013916,2,
R2417,barrerían,326,word,1,False,3,0.8338148593902588,1,
R2417,cubrías,327,word,2,True,3,0.834824800491333,1,
R2417,honderé,328,word,2,False,3,1.03202486038208,2,
R2417,sumarás,329,word,2,True,3,0.7732291221618652,1,
R2417,zusarán,330,word,1,True,3,1.425868034362793,2,
R2417,gruñían,331,word,2,True,3,1.0868327617645264,1,
R2417,gruñiremos,332,word,2,True,3,2.506896734237671,1,
R2417,cefleré,333,word,1,True,3,0.9829070568084717,2,
R2417,riteré,334,word,1,True,3,0.7312819957733154,2,
R2417,prendía,335,word,2,True,3,0.6829931735992432,1,
R2417,lailará,336,word,1,True,3,1.0548381805419922,2,
R2417,arderías,337,word,1,False,3,0.7537779808044434,1,
R2417,besaríamos,338,word,1,False,3,1.2779741287231445,1,
R2417,cederé,339,word,2,True,3,0.9140260219573975,1,
R2417,galaré,340,word,1,True,3,0.7790138721466064,2,
R2417,galaba,341,word,1,True,3,0.6459779739379883,2,
R2417,quemarías,342,word,2,True,3,1.227809190750122,1,
R2417,tupliríamos,343,word,1,True,3,0.845045804977417,2,
R2417,rimabas,344,word,1,False,3,0.8970520496368408,1,
R2417,faltarías,345,word,2,True,3,0.7890181541442871,1,
R2417,juraban,346,word,2,True,3,0.9129579067230225,1,
R2417,partiré,347,word,2,True,3,2.1340250968933105,1,
R2417,lailaban,348,word,1,True,3,0.6979010105133057,2,
R2417,sumábamos,349,word,2,True,3,1.366868019104004,1,
R2417,maftaré,350,word,1,True,3,1.1900091171264648,2,
R2417,ciperán,351,word,1,True,3,0.8338797092437744,2,
R2417,temían,352,word,2,True,3,0.7209899425506592,1,
R2417,lailarían,353,word,1,True,3,0.6869461536407471,2,
R2417,somerás,354,word,2,False,3,0.814781904220581,2,
R2417,cuarriría,355,word,1,True,3,0.5838091373443604,2,
R2417,focaría,356,word,1,True,3,0.6354990005493164,2,
R2417,cortaría,357,word,1,False,3,0.5279428958892822,1,
R2417,quijaré,358,word,2,False,3,1.0339481830596924,2,
R2417,rotaríamos,359,word,1,False,3,0.8720228672027588,1,
R2417,focaríamos,360,word,1,True,3,0.6241428852081299,2,
R2417,rayaríamos,361,word,1,False,3,1.0068440437316895,1,
R2417,prendería,362,word,2,True,3,0.9980108737945557,1,
R2417,uniríamos,363,word,2,True,3,0.7869918346405029,1,
R2417,luchaban,364,word,2,True,3,0.5397701263427734,1,
R2417,partirías,365,word,1,False,3,1.0328319072723389,1,
R2417,honderá,366,word,2,False,3,0.7910339832305908,2,
R2417,bigaremos,367,word,1,True,3,0.7069740295410156,2,
R2417,galará,368,word,1,True,3,0.8129961490631104,2,
R2417,maftará,369,word,1,True,3,0.7049000263214111,2,
R2417,obraba,370,word,2,True,3,0.8529417514801025,1,
R2417,faneríamos,371,word,1,True,3,0.8561756610870361,2,
R2417,sufrirán,372,word,2,True,3,0.8209738731384277,1,
R2417,cetíamos,373,word,1,True,3,0.6568880081176758,2,
R2417,frinderías,374,word,1,True,3,1.0359930992126465,2,
R2417,barreríamos,375,word,1,False,3,0.6491999626159668,1,
R2417,fundiríamos,376,word,1,False,3,0.7780017852783203,1,
R2417,lailaba,377,word,1,True,3,0.7310378551483154,2,
R2417,galarán,378,word,2,False,3,1.5339548587799072,2,
R2417,rondaría,379,word,1,False,3,0.8850069046020508,1,
R2417,rayará,380,word,2,True,3,1.082106113433838,1,
R2417,besará,381,word,2,True,3,0.8579428195953369,1,
R2417,gacharían,382,word,2,False,3,1.1259098052978516,2,
R2417,cuarrías,383,word,1,True,3,1.1199359893798828,2,
R2417,quemaré,384,word,2,True,3,0.9730310440063477,1,
R2417,ceterás,385,word,1,True,3,1.0309598445892334,2,
R2417,cichía,386,word,1,True,3,0.698986291885376,2,
R2417,formaba,387,word,2,True,3,0.6148679256439209,1,
R2417,meterán,388,word,2,True,3,0.5939679145812988,1,
R2417,gacharías,389,word,2,False,3,1.5188109874725342,2,
R2417,lachían,390,word,1,True,3,0.9118409156799316,2,
R2417,quemará,391,word,2,True,3,1.1999180316925049,1,
R2417,subiríamos,392,word,2,True,3,1.5324499607086182,1,
R2417,ceterá,393,word,1,True,3,1.5738019943237305,2,
R2417,frindería,394,word,1,True,3,1.8910529613494873,2,
R2417,bigabas,395,word,1,True,3,0.7703661918640137,2,
R2417,bailarían,396,word,2,True,3,0.6990389823913574,1,
R2417,cenábamos,397,word,2,True,3,0.855902910232544,1,
R2417,cuarrirías,398,word,1,True,3,0.876086950302124,2,
R2417,metíamos,399,word,2,True,3,0.8358430862426758,1,
R2417,bailaba,400,word,2,True,3,0.7174551486968994,1,
R2417,narraba,401,word,2,True,3,0.9018831253051758,1,
R2417,rimaban,402,word,2,True,3,0.8649840354919434,1,
R2417,porerán,403,word,1,True,3,0.7013840675354004,2,
R2417,cubría,404,word,2,True,3,0.7289679050445557,1,
R2417,rondará,405,word,1,False,3,1.1318447589874268,1,
R2417,sauarían,406,word,1,True,3,0.6818900108337402,2,
R2417,anrían,407,word,1,True,3,0.7578198909759521,2,
R2417,cumplirían,408,word,2,True,3,0.6658949851989746,1,
R2417,barríamos,409,word,2,True,3,3.379110813140869,1,
R2417,morderás,410,word,2,True,3,0.6609909534454346,1,
R2417,cubriríamos,411,word,1,False,3,0.6480019092559814,1,
R2417,retaré,412,word,1,False,3,1.0980300903320312,1,
R2417,rimará,413,word,2,True,3,0.9860029220581055,1,
R2417,sumaban,414,word,2,True,3,0.6280550956726074,1,
R2417,tosían,415,word,2,True,3,0.8839430809020996,1,
R2417,arderán,416,word,1,False,3,1.1089739799499512,1,
R2417,prendíamos,417,word,2,True,3,0.9059510231018066,1,
R2417,maftaríamos,418,word,2,False,3,0.7890241146087646,2,
R2417,vendías,419,word,2,True,3,0.6809089183807373,1,
R2417,prenderíamos,420,word,2,True,3,1.761052131652832,1,
R2417,obrará,421,word,2,True,3,0.5999279022216797,1,
R2417,jurarían,422,word,2,True,3,0.6389248371124268,1,
R2417,bimaré,423,word,1,True,3,0.7789478302001953,2,
R2417,cichiré,424,word,1,True,3,0.7508337497711182,2,
R2417,cenarías,425,word,2,True,3,0.832996129989624,1,
R2417,rondaré,426,word,1,False,3,0.9601531028747559,1,
R2417,lorgaremos,427,word,2,False,3,0.7137880325317383,2,
R2417,luntirían,428,word,1,True,3,0.814007043838501,2,
R2417,subiría,429,word,2,True,3,1.3950450420379639,1,
R2417,nadarán,430,word,2,True,3,0.8769879341125488,1,
R2417,charlaré,431,word,1,False,3,0.9268689155578613,1,
R2417,honderemos,432,word,1,True,3,1.6302149295806885,2,
R2417,cederías,433,word,1,False,3,0.9201040267944336,1,
R2417,faltábamos,434,word,2,True,3,0.811762809753418,1,
R2417,comerían,435,word,2,True,3,0.7090649604797363,1,
R2417,ceflería,436,word,1,True,3,1.1250438690185547,2,
R2417,galaría,437,word,2,False,3,1.697016954421997,2,
R2417,sufriré,438,word,2,True,3,0.6628551483154297,1,
R2417,cipía,439,word,1,True,3,0.6968309879302979,2,
R2417,retaríamos,440,word,1,False,3,0.8639378547668457,1,
R2417,partía,441,word,1,False,3,1.3337981700897217,1,
R2417,zusaré,442,word,1,True,3,0.9489669799804688,2,
R2417,retarán,443,word,1,False,3,0.8521621227264404,1,
R2417,gruñiríamos,444,word,1,False,3,0.6171939373016357,1,
R2417,sindábamos,445,word,1,True,3,1.3033239841461182,2,
R2417,retábamos,446,word,1,False,3,0.8330950736999512,1,
R2417,retaremos,447,word,1,False,3,1.0902447700500488,1,
R2417,riteríamos,448,word,1,True,3,0.972214937210083,2,
R2417,mardiría,449,word,1,True,3,1.299259901046753,2,
R2417,charlarías,450,word,2,True,3,0.9496040344238281,1,
R2417,barrías,451,word,2,True,3,0.7532382011413574,1,
R2417,bigaré,452,word,1,True,3,0.9041461944580078,2,
R2417,comerán,453,word,2,True,3,0.6892671585083008,1,
R2417,maftaremos,454,word,1,True,3,0.6495308876037598,2,
R2417,gachábamos,455,word,2,False,3,0.803074836730957,2,
R2417,casarás,456,word,2,True,3,0.6532349586486816,1,
R2417,mardirían,457,word,1,True,3,0.7304158210754395,2,
R2417,cortarás,458,word,2,True,3,0.708251953125,1,
R2417,frindíamos,459,word,2,False,3,1.137134075164795,2,
R2417,cumplirás,460,word,2,True,3,0.728255033493042,1,
R2417,lucharás,461,word,2,True,3,0.6340689659118652,1,
R2417,cuarrirá,462,word,1,True,3,0.9671239852905273,2,
R2417,bimarás,463,word,1,True,3,0.8600397109985352,2,
R2417,cichirás,464,word,1,True,3,0.6260240077972412,2,
R2417,bigarás,465,word,1,True,3,0.6987650394439697,2,
R2417,ritía,466,word,1,True,3,0.9238789081573486,2,
R2417,mordería,467,word,2,True,3,0.8178942203521729,1,
R2417,maftarían,468,word,1,True,3,0.8123760223388672,2,
R2417,bimabas,469,word,1,True,4,0.9241299629211426,2,
R2417,rotaremos,470,word,1,False,4,1.957921028137207,1,
R2417,luntiría,471,word,1,True,4,1.1880567073822021,2,
R2417,comerías,472,word,2,True,4,0.6903107166290283,1,
R2417,chanrarías,473,word,1,True,4,0.8068420886993408,2,
R2417,zusabas,474,word,1,True,4,0.844653844833374,2,
R2417,maftarás,475,word,1,True,4,0.5630929470062256,2,
R2417,cosíamos,476,word,2,True,4,1.5257151126861572,1,
R2417,focaba,477,word,1,True,4,2.222954034805298,2,
R2417,tuplirás,478,word,1,True,4,0.6150929927825928,2,
R2417,formarás,479,word,2,True,4,1.06374192237854,1,
R2417,cichirá,480,word,1,True,4,0.6219868659973145,2,
R2417,narrarán,481,word,2,True,4,1.0339229106903076,1,
R2417,meterías,482,word,2,True,4,1.3007800579071045,1,
R2417,anríamos,483,word,1,True,4,0.8939528465270996,2,
R2417,cetaba,484,word,1,True,4,0.8438661098480225,2,
R2417,poreremos,485,word,1,True,4,0.7941198348999023,2,
R2417,quijarán,486,word,1,True,4,1.2131199836730957,2,
R2417,cortarán,487,word,2,True,4,0.8228170871734619,1,
R2417,galaban,488,word,1,True,4,1.74208402633667,2,
R2417,obraban,489,word,2,True,4,0.7133278846740723,1,
R2417,nadábamos,490,word,2,True,4,0.6589019298553467,1,
R2417,tuplirán,491,word,1,True,4,0.6080548763275146,2,
R2417,lorgabas,492,word,1,True,4,0.9169619083404541,2,
R2417,cumplías,493,word,2,True,4,0.7799198627471924,1,
R2417,sumaré,494,word,2,True,4,0.7460017204284668,1,
R2417,formaré,495,word,2,True,4,1.328077793121338,1,
R2417,eplabas,496,word,1,True,4,0.6489217281341553,2,
R2417,temerías,497,word,2,True,4,0.7970430850982666,1,
R2417,quijabas,498,word,2,False,4,0.8760068416595459,2,
R2417,runaremos,499,word,1,True,4,1.0740392208099365,2,
R2417,focarían,500,word,1,True,4,0.9869890213012695,2,
R2417,bailará,501,word,2,True,4,0.7310419082641602,1,
R2417,fanerás,502,word,1,True,4,0.6029157638549805,2,
R2417,lamerían,503,word,2,True,4,1.553882122039795,1,
R2417,subían,504,word,2,True,4,0.5809710025787354,1,
R2417,ciperíamos,505,word,1,True,4,0.7750611305236816,2,
R2417,partían,506,word,2,True,4,0.7420520782470703,1,
R2417,cenará,507,word,2,True,4,0.7469696998596191,1,
R2417,cetaremos,508,word,1,True,4,0.6695280075073242,2,
R2417,ciperían,509,word,1,True,4,0.6309731006622314,2,
R2417,anrerían,510,word,1,True,4,0.6129441261291504,2,
R2417,ritían,511,word,1,True,4,0.5312328338623047,2,
R2417,rimarán,512,word,1,False,4,0.9589910507202148,1,
R2417,pavarían,513,word,1,True,4,0.5730862617492676,2,
R2417,partíamos,514,word,2,True,4,0.878931999206543,1,
R2417,cetarás,515,word,1,True,4,0.6129112243652344,2,
R2417,temerán,516,word,2,True,4,0.6890113353729248,1,
R2417,tosíamos,517,word,2,True,4,0.821753978729248,1,
R2417,bimarías,518,word,1,True,4,0.6630570888519287,2,
R2417,cetería,519,word,1,True,4,0.5598578453063965,2,
R2417,focaban,520,word,2,False,4,0.6758792400360107,2,
R2417,casaremos,521,word,2,True,4,0.6318340301513672,1,
R2417,moncería,522,word,1,True,4,0.8699369430541992,2,
R2417,meterás,523,word,2,True,4,0.9019150733947754,1,
R2417,luchará,524,word,2,True,4,0.5400412082672119,1,
R2417,quemarían,525,word,2,True,4,0.8119411468505859,1,
R2417,lorgaré,526,word,1,True,4,1.4148578643798828,2,
R2417,quemarás,527,word,2,True,4,0.9218769073486328,1,
R2417,tuplían,528,word,1,True,4,0.7759280204772949,2,
R2417,cichirían,529,word,1,True,4,0.738947868347168,2,
R2417,bigaba,530,word,1,True,4,0.6599400043487549,2,
R2417,somerían,531,word,1,True,4,1.1299357414245605,2,
R2417,quijarías,532,word,1,True,4,1.0658819675445557,2,
R2417,fanían,533,word,1,True,4,1.3488950729370117,2,
R2417,porerías,534,word,1,True,4,0.562065839767456,2,
R2417,sufríamos,535,word,2,True,4,0.7088391780853271,1,
R2417,rotarás,536,word,2,True,4,0.6149218082427979,1,
R2417,barrerán,537,word,1,False,4,1.595844030380249,1,
R2417,tujíamos,538,word,1,True,4,0.7508029937744141,2,
R2417,lailaré,539,word,1,True,4,0.7250308990478516,2,
R2417,subía,540,word,2,True,4,0.6699690818786621,1,
R2417,faltaré,541,word,2,True,4,0.6858429908752441,1,
R2417,pavaré,542,word,1,True,4,0.6630220413208008,2,
R2417,luntiremos,543,word,1,True,4,0.6409800052642822,2,
R2417,rotaría,544,word,1,False,4,1.4217572212219238,1,
R2417,zusarías,545,word,1,True,4,0.6448030471801758,2,
R2417,mardíamos,546,word,1,True,4,1.8140511512756348,2,
R2417,cetará,547,word,1,True,4,0.8440220355987549,2,
R2417,cortabas,548,word,2,True,4,0.975949764251709,1,
R2417,barreremos,549,word,1,False,4,3.4070730209350586,1,
R2417,fundíamos,550,word,2,True,4,0.9799849987030029,1,
R2417,sumaría,551,word,2,True,4,1.5654282569885254,1,
R2417,quijarían,552,word,1,True,4,1.5577611923217773,2,
R2417,cisaría,553,word,1,True,4,0.5440971851348877,2,
R2417,focábamos,554,word,1,True,4,2.3578591346740723,2,
R2417,lucharían,555,word,2,True,4,0.9520277976989746,1,
R2417,ceflerán,556,word,1,True,4,0.6928980350494385,2,
R2417,lailábamos,557,word,1,True,4,1.0171678066253662,2,
R2417,ceflerían,558,word,1,True,4,0.6019630432128906,2,
R2417,morderían,559,word,2,True,4,1.0377349853515625,1,
R2417,pavará,560,word,1,True,4,0.825916051864624,2,
R2417,cisaré,561,word,1,True,4,1.0769050121307373,2,
R2417,comerás,562,word,2,True,4,0.8677690029144287,1,
R2417,galarías,563,word,2,False,4,1.187946081161499,2,
R2417,sauaremos,564,word,1,True,4,0.7349820137023926,2,
R2417,burrabas,565,word,1,True,4,0.910895824432373,2,
R2417,lamía,566,word,2,True,4,1.0785000324249268,1,
R2417,rayaría,567,word,2,True,4,0.9249742031097412,1,
R2417,temerían,568,word,2,True,4,0.9758248329162598,1,
R2417,morderemos,569,word,1,False,4,1.6869750022888184,1,
R2417,mertábamos,570,word,1,True,4,0.9729142189025879,2,
R2417,rimaremos,571,word,1,False,4,0.9069581031799316,1,
R2417,lucharíamos,572,word,2,True,4,2.267120122909546,1,
R2417,luntíamos,573,word,1,True,4,1.2397370338439941,2,
R2417,imirían,574,word,2,False,4,2.1520349979400635,2,
R2417,faneremos,575,word,1,True,4,0.7341370582580566,2,
R2417,mardirás,576,word,1,True,4,0.837993860244751,2,
R2417,casábamos,577,word,2,True,4,0.8420510292053223,1,
R2417,lamerá,578,word,1,False,4,0.7199177742004395,1,
R2417,seserás,579,word,1,True,4,1.3668222427368164,2,
R2417,sauará,580,word,1,True,4,0.9479618072509766,2,
R2417,mertaríamos,581,word,1,True,4,1.1337809562683105,2,
R2417,jurarás,582,word,2,True,4,0.9137721061706543,1,
R2417,casará,583,word,2,True,4,0.596132755279541,1,
R2417,bailaré,584,word,2,True,4,0.601813793182373,1,
R2417,meterá,585,word,2,True,4,1.1249539852142334,1,
R2417,sindarás,586,word,1,True,4,0.9671669006347656,2,
R2417,cichirías,587,word,1,True,4,0.8238701820373535,2,
R2417,frinderían,588,word,1,True,4,0.5558297634124756,2,
R2417,corríamos,589,word,2,True,4,0.7508862018585205,1,
R2417,focaré,590,word,1,True,4,0.9538748264312744,2,
R2417,quijábamos,591,word,1,True,4,0.9626560211181641,2,
R2417,nadaría,592,word,2,True,4,1.223982810974121,1,
R2417,focarán,593,word,1,True,4,0.7536139488220215,2,
R2417,nadabas,594,word,1,False,4,0.884911060333252,1,
R2417,cetarán,595,word,1,True,4,1.158038854598999,2,
R2417,unirán,596,word,2,True,4,0.8072519302368164,1,
R2417,formarían,597,word,2,True,4,0.9188981056213379,1,
R2417,cedíamos,598,word,2,True,4,1.2890129089355469,1,
R2417,mardías,599,word,1,True,4,0.9829800128936768,2,
R2417,obrábamos,600,word,2,True,4,0.8918540477752686,1,
R2417,bigarían,601,word,1,True,4,0.7932767868041992,2,
R2417,runaría,602,word,1,True,4,0.8729310035705566,2,
R2417,rotaban,603,word,2,True,4,1.1789052486419678,1,
R2417,unía,604,word,2,True,4,0.7908871173858643,1,
R2417,prenderías,605,word,2,True,4,0.9988322257995605,1,
R2417,tujían,606,word,1,True,4,0.6848671436309814,2,
R2417,luntías,607,word,1,True,4,0.6049549579620361,2,
R2417,nadarías,608,word,2,True,4,1.2648260593414307,1,
R2417,lailaríamos,609,word,1,True,4,0.6919920444488525,2,
R2417,charlaba,610,word,2,True,4,1.040036678314209,1,
R2417,sindaré,611,word,1,True,4,0.5959670543670654,2,
R2417,cederá,612,word,1,False,4,1.8459560871124268,1,
R2417,chanrabas,613,word,1,True,4,0.8447098731994629,2,
R2417,moncerías,614,word,1,True,4,0.5419149398803711,2,
R2417,sumaremos,615,word,1,False,4,0.6586389541625977,1,
R2417,bailaríamos,616,word,2,True,4,0.6361119747161865,1,
R2417,gacharás,617,word,2,False,4,0.9998128414154053,2,
R2417,cetían,618,word,1,True,4,1.0360078811645508,2,
R2417,retabas,619,word,1,False,4,0.6818759441375732,1,
R2417,partirás,620,word,2,True,4,1.2620959281921387,1,
R2417,rayarían,621,word,1,False,4,0.994398832321167,1,
R2417,rayaremos,622,word,1,False,4,0.9563391208648682,1,
R2417,formabas,623,word,2,True,4,0.7331359386444092,1,
R2417,pavaremos,624,word,1,True,4,0.6948671340942383,2,
R2417,imiré,625,word,2,False,5,1.0549919605255127,2,
R2417,burraban,626,word,1,True,5,0.8359599113464355,2,
R2417,rondarán,627,word,1,False,5,1.0129411220550537,1,
R2417,lucharé,628,word,2,True,5,0.6227562427520752,1,
R2417,faltará,629,word,2,True,5,0.6918582916259766,1,
R2417,sindaban,630,word,1,True,5,0.7861578464508057,2,
R2417,focarías,631,word,1,True,5,0.6608829498291016,2,
R2417,morderá,632,word,2,True,5,0.9068379402160645,1,
R2417,hondía,633,word,1,True,5,0.8090870380401611,2,
R2417,luntirán,634,word,1,True,5,0.828942060470581,2,
R2417,fundirías,635,word,2,True,5,1.8769688606262207,1,
R2417,mordía,636,word,2,True,5,0.5829949378967285,1,
R2417,toserás,637,word,2,True,5,0.8541600704193115,1,
R2417,lailarás,638,word,1,True,5,0.6780059337615967,2,
R2417,mertaba,639,word,1,True,5,0.8449721336364746,2,
R2417,barrerías,640,word,1,False,5,1.2619519233703613,1,
R2417,lacheremos,641,word,1,True,5,0.7839698791503906,2,
R2417,maftarías,642,word,1,True,5,0.6339020729064941,2,
R2417,nadaba,643,word,2,True,5,0.830894947052002,1,
R2417,seserían,644,word,2,False,5,0.9519948959350586,2,
R2417,cenaría,645,word,2,True,5,1.0640928745269775,1,
R2417,seserán,646,word,1,True,5,1.2174079418182373,2,
R2417,sumarían,647,word,2,True,5,0.9397180080413818,1,
R2417,cortará,648,word,2,True,5,0.8689711093902588,1,
R2417,frinderás,649,word,1,True,5,1.3838841915130615,2,
R2417,honderán,650,word,1,True,5,0.978874921798706,2,
R2417,zusaban,651,word,1,True,5,0.6090512275695801,2,
R2417,quijaba,652,word,1,True,5,0.6269140243530273,2,
R2417,partirán,653,word,1,False,5,0.8200769424438477,1,
R2417,bruviríamos,654,word,1,True,5,0.7159388065338135,2,
R2417,rondarían,655,word,1,False,5,0.5989010334014893,1,
R2417,metería,656,word,1,False,5,0.5820388793945312,1,
R2417,casarías,657,word,2,True,5,1.712332010269165,1,
R2417,bruvirá,658,word,1,True,5,0.992077112197876,2,
R2417,tuplirá,659,word,1,True,5,0.8209860324859619,2,
R2417,faníamos,660,word,1,True,5,0.7501199245452881,2,
R2417,vultarías,661,word,1,True,5,0.7878830432891846,2,
R2417,formará,662,word,2,True,5,1.1469221115112305,1,
R2417,charlaban,663,word,2,True,5,0.9399411678314209,1,
R2417,bailarías,664,word,2,True,5,1.6197996139526367,1,
R2417,quijaban,665,word,2,False,5,0.7167568206787109,2,
R2417,cipías,666,word,1,True,5,0.6070189476013184,2,
R2417,narrarás,667,word,1,False,5,1.5610449314117432,1,
R2417,fanerías,668,word,1,True,5,0.6030359268188477,2,
R2417,moncerás,669,word,1,True,5,0.6569199562072754,2,
R2417,hondían,670,word,1,True,5,0.8439087867736816,2,
R2417,cortarían,671,word,2,True,5,3.0840017795562744,1,
R2417,lorgarás,672,word,1,True,5,1.489081859588623,2,
R2417,anrería,673,word,1,True,5,0.7729618549346924,2,
R2417,cubríamos,674,word,2,True,5,1.675105094909668,1,
R2417,subías,675,word,2,True,5,1.0750248432159424,1,
R2417,fundiría,676,word,1,False,5,1.1708359718322754,1,
R2417,bruviré,677,word,1,True,5,0.5488860607147217,2,
R2417,coseríamos,678,word,1,False,5,1.5919580459594727,1,
R2417,formaremos,679,word,1,False,5,3.3559210300445557,1,
R2417,faltaremos,680,word,2,True,5,1.3679170608520508,1,
R2417,lorgarán,681,word,1,True,5,1.1720130443572998,2,
R2417,gachará,682,word,2,False,5,0.7248330116271973,2,
R2417,runaban,683,word,1,True,5,0.8680970668792725,2,
R2417,gruñías,684,word,1,False,5,2.924056053161621,1,
R2417,quijaría,685,word,1,True,5,0.7158219814300537,2,
R2417,ceterían,686,word,1,True,5,0.7190420627593994,2,
R2417,cetábamos,687,word,1,True,5,0.7080111503601074,2,
R2417,ritíamos,688,word,1,True,5,0.6088778972625732,2,
R2417,chanraba,689,word,1,True,5,0.5801122188568115,2,
R2417,rondaba,690,word,1,False,5,0.8350369930267334,1,
R2417,cubrían,691,word,2,True,5,1.01981782913208,1,
R2417,cisaba,692,word,1,True,5,1.0698943138122559,2,
R2417,cubriré,693,word,2,True,5,0.8041877746582031,1,
R2417,cumplirías,694,word,2,True,5,0.863818883895874,1,
R2417,rotarían,695,word,1,False,5,0.9687590599060059,1,
R2417,barrería,696,word,1,False,5,0.8040099143981934,1,
R2417,quemaríamos,697,word,1,False,5,0.6909358501434326,1,
R2417,cetabas,698,word,1,True,5,0.665830135345459,2,
R2417,hondería,699,word,1,True,5,0.574988842010498,2,
R2417,bruviremos,700,word,1,True,5,0.5390450954437256,2,
R2417,rimaba,701,word,1,False,5,0.5775818824768066,1,
R2417,sauaban,702,word,1,True,5,0.6260607242584229,2,
R2417,sufría,703,word,2,True,5,0.6870138645172119,1,
R2417,gacharía,704,word,2,False,5,0.8078420162200928,2,
R2417,chanrarán,705,word,1,True,5,0.6920409202575684,2,
R2417,maftaría,706,word,1,True,5,0.5745339393615723,2,
R2417,lacherás,707,word,1,True,5,0.4435567855834961,2,
R2417,pactaremos,708,word,1,False,5,0.6023588180541992,1,
R2417,toseríamos,709,word,1,False,5,0.5419347286224365,1,
R2417,somería,710,word,1,True,5,1.2969670295715332,2,
R2417,imiría,711,word,1,True,5,1.0650858879089355,2,
R2417,maftarán,712,word,1,True,5,0.689857006072998,2,
R2417,burraremos,713,word,1,True,5,0.5950000286102295,2,
R2417,corrías,714,word,2,True,5,1.0140089988708496,1,
R2417,cisará,715,word,2,False,5,1.7569868564605713,2,
R2417,cuarrían,716,word,1,True,5,0.8370180130004883,2,
R2417,narrarías,717,word,2,True,5,1.0486998558044434,1,
R2417,burrábamos,718,word,1,True,5,0.9098351001739502,2,
R2417,vultaríamos,719,word,1,True,5,0.794975996017456,2,
R2417,prendían,720,word,2,True,5,0.6851158142089844,1,
R2417,ritería,721,word,1,True,5,0.8320131301879883,2,
R2417,cichiría,722,word,1,True,5,0.581057071685791,2,
R2417,sesería,723,word,1,True,5,0.7539770603179932,2,
R2417,cubrirían,724,word,2,True,5,1.2129123210906982,1,
R2417,lamíamos,725,word,1,False,5,1.0989599227905273,1,
R2417,vultábamos,726,word,1,True,5,0.6907358169555664,2,
R2417,sauarán,727,word,1,True,5,0.5969803333282471,2,
R2417,ceflías,728,word,1,True,5,0.5869429111480713,2,
R2417,obraré,729,word,2,True,5,2.5572328567504883,1,
R2417,somerías,730,word,1,True,5,0.7736659049987793,2,
R2417,cortábamos,731,word,2,True,5,0.7229418754577637,1,
R2417,quemaremos,732,word,2,True,5,1.093851089477539,1,
R2417,sesía,733,word,1,True,5,0.6979572772979736,2,
R2417,obraríamos,734,word,1,False,5,0.9779608249664307,1,
R2417,somerá,735,word,1,True,5,0.7769322395324707,2,
R2417,mertabas,736,word,1,True,5,0.8613357543945312,2,
R2417,cisabas,737,word,1,True,5,0.5629019737243652,2,
R2417,lameré,738,word,1,False,5,0.7679238319396973,1,
R2417,ceflía,739,word,1,True,5,0.5739290714263916,2,
R2417,lorgaba,740,word,1,True,5,0.5529859066009521,2,
R2417,coserías,741,word,1,False,5,0.6129789352416992,1,
R2417,lacheré,742,word,1,True,5,0.5650880336761475,2,
R2417,anrías,743,word,1,True,5,0.7158358097076416,2,
R2417,casaré,744,word,2,True,5,0.7557940483093262,1,
R2417,fanerían,745,word,1,True,5,0.7028360366821289,2,
R2417,sauarás,746,word,1,True,5,0.5609009265899658,2,
R2417,moncerá,747,word,1,True,5,0.5389916896820068,2,
R2417,toserían,748,word,1,False,5,1.911815881729126,1,
R2417,comíamos,749,word,2,True,5,0.7469649314880371,1,
R2417,comías,750,word,2,True,5,0.7799839973449707,1,
R2417,vultaban,751,word,1,True,5,0.8618869781494141,2,
R2417,imirán,752,word,1,True,5,0.695842981338501,2,
R2417,sufrirías,753,word,2,True,5,2.1850571632385254,1,
R2417,correría,754,word,2,True,5,0.9889330863952637,1,
R2417,vendería,755,word,2,True,5,0.9440701007843018,1,
R2417,seseremos,756,word,1,True,5,1.2970049381256104,2,
R2417,temía,757,word,2,True,5,0.7218658924102783,1,
R2417,someremos,758,word,1,True,5,0.5967741012573242,2,
R2417,partiremos,759,word,1,False,5,1.148094892501831,1,
R2417,obraría,760,word,2,True,5,1.0568382740020752,1,
R2417,burrarían,761,word,1,True,5,0.8707821369171143,2,
R2417,chanrábamos,762,word,1,True,5,0.8281569480895996,2,
R2417,besaban,763,word,2,True,5,0.7907800674438477,1,
R2417,cenarás,764,word,2,True,5,1.0628538131713867,1,
R2417,pactábamos,765,word,1,False,5,1.6689748764038086,1,
R2417,bigaríamos,766,word,1,True,5,1.1677682399749756,2,
R2417,sufriríamos,767,word,2,True,5,1.120021104812622,1,
R2417,sufrirá,768,word,2,True,5,0.6271097660064697,1,
R2417,zusaría,769,word,1,True,5,0.9228711128234863,2,
R2417,besarán,770,word,2,True,5,0.6549942493438721,1,
R2417,rimábamos,771,word,1,False,5,1.1639080047607422,1,
R2417,ciperemos,772,word,1,True,5,0.7330238819122314,2,
R2417,rondabas,773,word,1,False,5,1.1012909412384033,1,
R2417,prenderían,774,word,2,True,5,0.905860185623169,1,
R2417,besaría,775,word,2,True,5,0.5797679424285889,1,
R2417,lorgábamos,776,word,1,True,5,1.2609710693359375,2,
R2417,sauaríamos,777,word,1,True,5,0.5810761451721191,2,
R2417,charlábamos,778,word,2,True,5,0.9598855972290039,1,
R2417,narrábamos,779,word,2,True,5,1.763012170791626,1,
R2417,luntiré,780,word,1,True,5,0.73602294921875,2,
R2417,sumaríamos,781,word,1,False,6,1.0897140502929688,1,
R2417,tujiríamos,782,word,1,True,6,0.5769579410552979,2,
R2417,runarás,783,word,1,True,6,0.6720821857452393,2,
R2417,imirá,784,word,1,True,6,1.0464451313018799,2,
R2417,runaba,785,word,1,True,6,0.7310061454772949,2,
R2417,correrían,786,word,2,True,6,0.9038808345794678,1,
R2417,hondíamos,787,word,1,True,6,0.5988860130310059,2,
R2417,sufriremos,788,word,2,True,6,0.5930099487304688,1,
R2417,anrerán,789,word,1,True,6,0.8559412956237793,2,
R2417,mertarían,790,word,1,True,6,1.3348653316497803,2,
R2417,besarías,791,word,2,True,6,0.6080329418182373,1,
R2417,quemaban,792,word,2,True,6,0.9520268440246582,1,
R2417,quemaba,793,word,2,True,6,0.7159748077392578,1,
R2417,lachías,794,word,1,True,6,0.7129058837890625,2,
R2417,monceremos,795,word,1,True,6,1.0709140300750732,2,
R2417,unirás,796,word,2,True,6,0.9320240020751953,1,
R2417,cumplían,797,word,2,True,6,0.595937967300415,1,
R2417,bruvirás,798,word,1,True,6,0.6367988586425781,2,
R2417,seseríamos,799,word,1,True,6,1.428853988647461,2,
R2417,tujiré,800,word,1,True,6,0.6572673320770264,2,
R2417,gruñirán,801,word,1,False,6,0.7289271354675293,1,
R2417,gacharíamos,802,word,2,False,6,1.0010809898376465,2,
R2417,chanraría,803,word,1,True,6,0.9129319190979004,2,
R2417,gachaban,804,word,2,False,6,0.9718308448791504,2,
R2417,cetaban,805,word,1,True,6,1.057011365890503,2,
R2417,temeré,806,word,2,True,6,0.9149529933929443,1,
R2417,cortaba,807,word,2,True,6,0.646245002746582,1,
R2417,zusarás,808,word,1,True,6,0.6414082050323486,2,
R2417,venderíamos,809,word,1,False,6,2.6478781700134277,1,
R2417,prenderán,810,word,2,True,6,0.9670357704162598,1,
R2417,frinderán,811,word,1,True,6,0.8528788089752197,2,
R2417,cortaríamos,812,word,1,False,6,1.8169488906860352,1,
R2417,galabas,813,word,1,True,6,0.9468240737915039,2,
R2417,comerá,814,word,2,True,6,0.7108469009399414,1,
R2417,luntirá,815,word,1,True,6,0.7029900550842285,2,
R2417,charlará,816,word,2,True,6,0.932931661605835,1,
R2417,someríamos,817,word,1,True,6,0.6799860000610352,2,
R2417,prenderemos,818,word,2,True,6,0.8489489555358887,1,
R2417,unías,819,word,2,True,6,0.6049227714538574,1,
R2417,vultarían,820,word,1,True,6,0.7467608451843262,2,
R2417,rayábamos,821,word,2,True,6,0.856003999710083,1,
R2417,faltaban,822,word,2,True,6,0.6259253025054932,1,
R2417,nadarás,823,word,2,True,6,0.6706929206848145,1,
R2417,maftábamos,824,word,1,True,6,0.8019919395446777,2,
R2417,nadaré,825,word,2,True,6,0.7760860919952393,1,
R2417,lacherías,826,word,p,False,6,50.89154887199402,2,
R2417,tupliré,827,word,1,True,6,0.6856398582458496,2,
R2417,besábamos,828,word,2,True,6,0.5782179832458496,1,
R2417,morderías,829,word,2,True,6,0.9768409729003906,1,
R2417,cosería,830,word,2,True,6,0.5882370471954346,1,
R2417,cumpliremos,831,word,2,True,6,1.3273398876190186,1,
R2417,moncíamos,832,word,1,True,6,0.7442059516906738,2,
R2417,nadaremos,833,word,2,True,6,0.8623449802398682,1,
R2417,maftaba,834,word,1,True,6,0.5811951160430908,2,
R2417,prenderá,835,word,2,True,6,0.6830940246582031,1,
R2417,narraría,836,word,1,False,6,2.649212121963501,1,
R2417,casaban,837,word,2,True,6,1.9511570930480957,1,
R2417,sauaría,838,word,1,True,6,0.6252610683441162,2,
R2417,frinderemos,839,word,1,True,6,0.6412270069122314,2,
R2417,tujía,840,word,1,True,6,0.6281368732452393,2,
R2417,burraría,841,word,1,True,6,0.589320182800293,2,
R2417,tujirías,842,word,1,True,6,0.5363607406616211,2,
R2417,cuarriré,843,word,1,True,6,1.0319840908050537,2,
R2417,eplará,844,word,1,True,6,0.6179299354553223,2,
R2417,charlabas,845,word,2,True,6,0.7290689945220947,1,
R2417,chanrarían,846,word,1,True,6,0.6797120571136475,2,
R2417,correrá,847,word,1,False,6,2.6209070682525635,1,
R2417,gacharé,848,word,2,False,6,1.3367919921875,2,
R2417,coseremos,849,word,1,False,6,1.913686990737915,1,
R2417,narrarían,850,word,1,False,6,2.620941162109375,1,
R2417,sesíamos,851,word,1,True,6,0.7138819694519043,2,
R2417,tujiremos,852,word,1,True,6,0.5709009170532227,2,
R2417,prendías,853,word,2,True,6,1.243358850479126,1,
R2417,meteré,854,word,2,True,6,0.8189361095428467,1,
R2417,cisaremos,855,word,1,True,6,0.9468889236450195,2,
R2417,pactaba,856,word,1,False,6,0.6575469970703125,1,
R2417,subíamos,857,word,2,True,6,1.0827100276947021,1,
R2417,temería,858,word,2,True,6,0.6744182109832764,1,
R2417,ceteremos,859,word,1,True,6,0.674943208694458,2,
R2417,mertaré,860,word,1,True,6,1.079991102218628,2,
R2417,charlarás,861,word,2,True,6,0.9718308448791504,1,
R2417,riterás,862,word,1,True,6,0.7250356674194336,2,
R2417,burrará,863,word,1,True,6,1.6138832569122314,2,
R2417,frindías,864,word,1,True,6,0.6659588813781738,2,
R2417,cederán,865,word,1,False,6,1.726125717163086,1,
R2417,zusaríamos,866,word,1,True,6,0.6029782295227051,2,
R2417,sufrías,867,word,2,True,6,0.8208510875701904,1,
R2417,cenaré,868,word,2,True,6,0.8300549983978271,1,
R2417,rondaremos,869,word,1,False,6,0.9489719867706299,1,
R2417,rimarías,870,word,1,False,6,0.6328670978546143,1,
R2417,besaremos,871,word,2,True,6,0.7160429954528809,1,
R2417,arderíamos,872,word,1,False,6,0.7723679542541504,1,
R2417,tosías,873,word,2,True,6,0.782921314239502,1,
R2417,casaba,874,word,2,True,6,0.6620171070098877,1,
R2417,lorgarían,875,word,1,True,6,1.815983772277832,2,
R2417,toserá,876,word,2,True,6,0.887951135635376,1,
R2417,correrás,877,word,2,True,6,1.0260701179504395,1,
R2417,cumplíamos,878,word,1,False,6,1.5169930458068848,1,
R2417,lailarías,879,word,1,True,6,0.5789330005645752,2,
R2417,fundiré,880,word,1,False,6,0.8213441371917725,1,
R2417,zusarían,881,word,1,True,6,0.8889658451080322,2,
R2417,cetías,882,word,1,True,6,0.636897087097168,2,
R2417,pactaré,883,word,1,False,6,0.6350052356719971,1,
R2417,tujías,884,word,1,True,6,0.4759712219238281,2,
R2417,arderás,885,word,1,False,6,0.7459089756011963,1,
R2417,cuarría,886,word,1,True,6,0.6611409187316895,2,
R2417,morderíamos,887,word,1,False,6,1.6109137535095215,1,
R2417,honderíamos,888,word,1,True,6,0.766977071762085,2,
R2417,formaría,889,word,1,False,6,0.7549543380737305,1,
R2417,toseremos,890,word,2,True,6,1.0659658908843994,1,
R2417,pavaban,891,word,1,True,6,0.561974048614502,2,
R2417,subirá,892,word,1,False,6,1.7549419403076172,1,
R2417,nadaban,893,word,2,True,6,1.2658450603485107,1,
R2417,cipían,894,word,1,True,6,0.6949381828308105,2,
R2417,anreremos,895,word,1,True,6,0.581071138381958,2,
R2417,correré,896,word,1,False,6,1.2860050201416016,1,
R2417,rotarán,897,word,1,False,6,0.21496200561523438,1,
R2417,comeremos,898,word,2,True,6,1.0537869930267334,1,
R2417,imía,899,word,1,True,6,0.6919291019439697,2,
R2417,bailarán,900,word,2,True,6,0.7019240856170654,1,
R2417,formaban,901,word,2,True,6,0.7599821090698242,1,
R2417,focarás,902,word,1,True,6,1.126786231994629,2,
R2417,rondaríamos,903,word,1,False,6,0.858997106552124,1,
R2417,besarás,904,word,2,True,6,0.7169771194458008,1,
R2417,bruvirán,905,word,1,True,6,0.7549302577972412,2,
R2417,faltaría,906,word,2,True,6,1.305927038192749,1,
R2417,pavábamos,907,word,1,True,6,1.595980167388916,2,
R2417,bimarán,908,word,1,True,6,0.7488489151000977,2,
R2417,cuarrirás,909,word,1,True,6,0.7237429618835449,2,
R2417,luchabas,910,word,2,True,6,0.7389471530914307,1,
R2417,bigábamos,911,word,1,True,6,0.7471239566802979,2,
R2417,bruvía,912,word,1,True,6,0.9001121520996094,2,
R2417,runaríamos,913,word,1,True,6,0.6799218654632568,2,
R2417,sumará,914,word,1,False,6,0.5978643894195557,1,
R2417,mardirá,915,word,1,True,6,0.6289331912994385,2,
R2417,eplábamos,916,word,1,True,6,0.5780379772186279,2,
R2417,rondábamos,917,word,1,False,6,1.1049799919128418,1,
R2417,pavarás,918,word,1,True,6,0.556865930557251,2,
R2417,bruvían,919,word,1,True,6,0.49294185638427734,2,
R2417,sindarán,920,word,1,True,6,0.46695899963378906,2,
R2417,cortaremos,921,word,2,True,6,0.8609621524810791,1,
R2417,chanrará,922,word,1,True,6,0.6509621143341064,2,
R2417,anrerás,923,word,1,True,6,0.5141181945800781,2,
R2417,galaremos,924,word,1,True,6,0.895775318145752,2,
R2417,casaría,925,word,2,True,6,0.7270243167877197,1,
R2417,bimaban,926,word,1,True,6,0.5744259357452393,2,
R2417,fundía,927,word,2,True,6,0.8421633243560791,1,
R2417,luntiríamos,928,word,1,True,6,0.7830150127410889,2,
R2417,venderé,929,word,2,True,6,0.9458398818969727,1,
R2417,lamerán,930,word,1,False,6,0.8138611316680908,1,
R2417,jurabas,931,word,2,True,6,1.2100551128387451,1,
R2417,cisaríamos,932,word,1,True,6,0.6478698253631592,2,
R2417,ceteríamos,933,word,1,True,6,0.9458870887756348,2,
R2417,lameremos,934,word,1,False,6,0.7670438289642334,1,
R2417,nadaríamos,935,word,1,False,6,1.7678821086883545,1,
R2417,jurábamos,936,word,2,True,6,1.0328588485717773,1,
R2417,gruñía,937,word,2,True,7,1.9220612049102783,1,
R2417,cetaría,938,word,1,True,7,0.6058540344238281,2,
R2417,bailabas,939,word,2,True,7,0.6190729141235352,1,
R2417,fundirán,940,word,2,True,7,0.7947680950164795,1,
R2417,lorgaría,941,word,1,True,7,1.5408718585968018,2,
R2417,lucharías,942,word,2,True,7,1.2929620742797852,1,
R2417,formábamos,943,word,2,True,7,0.7798891067504883,1,
R2417,bruvíamos,944,word,1,True,7,0.647860050201416,2,
R2417,rotaré,945,word,1,False,7,0.9000117778778076,1,
R2417,rondaban,946,word,2,True,7,1.525942087173462,1,
R2417,retaba,947,word,1,False,7,0.8160090446472168,1,
R2417,bailaremos,948,word,2,True,7,1.005981206893921,1,
R2417,rimarían,949,word,1,False,7,0.6799027919769287,1,
R2417,rimaré,950,word,1,False,7,0.6248900890350342,1,
R2417,runarías,951,word,1,True,7,0.6406641006469727,2,
R2417,bailaría,952,word,2,True,7,1.6908161640167236,1,
R2417,coserán,953,word,2,True,7,0.8611869812011719,1,
R2417,sumarías,954,word,2,True,7,0.6548871994018555,1,
R2417,coserás,955,word,2,True,7,0.7809209823608398,1,
R2417,cumplía,956,word,2,True,7,0.5964539051055908,1,
R2417,seserías,957,word,1,True,7,0.9010000228881836,2,
R2417,fanías,958,word,1,True,7,1.2137770652770996,2,
R2417,cenarán,959,word,2,True,7,0.7550008296966553,1,
R2417,arderá,960,word,1,False,7,1.1078059673309326,1,
R2417,pavarías,961,word,1,True,7,0.6030268669128418,2,
R2417,comía,962,word,2,True,7,0.7879910469055176,1,
R2417,fundiremos,963,word,1,False,7,1.1690130233764648,1,
R2417,temerá,964,word,2,True,7,1.0329439640045166,1,
R2417,eplarás,965,word,1,True,7,0.7020978927612305,2,
R2417,quemabas,966,word,2,True,7,0.6790041923522949,1,
R2417,lailaremos,967,word,1,True,7,0.7110600471496582,2,
R2417,cetaríamos,968,word,1,True,7,0.5161888599395752,2,
R2417,temeremos,969,word,2,True,7,1.1680171489715576,1,
R2417,vendían,970,word,2,True,7,0.6888470649719238,1,
R2417,pactabas,971,word,1,False,7,0.7087888717651367,1,
R2417,cortaban,972,word,2,True,7,0.6580839157104492,1,
R2417,sauábamos,973,word,1,True,7,0.7399020195007324,2,
R2417,bruviría,974,word,1,True,7,0.7039279937744141,2,
R2417,retaría,975,word,1,False,7,0.6750640869140625,1,
R2417,fanía,976,word,1,True,7,0.5699253082275391,2,
R2417,casaríamos,977,word,1,False,7,0.956834077835083,1,
R2417,luntía,978,word,1,True,7,0.5848829746246338,2,
R2417,cedían,979,word,2,True,7,1.6319212913513184,1,
R2417,rimarás,980,word,1,False,7,0.6642191410064697,1,
R2417,runarán,981,word,1,True,7,0.7971789836883545,2,
R2417,rotará,982,word,1,False,7,1.0380079746246338,1,
R2417,tosería,983,word,2,True,7,1.1937239170074463,1,
R2417,cedías,984,word,1,False,7,0.7090709209442139,1,
R2417,zusaba,985,word,1,True,7,0.8230118751525879,2,
R2417,barrían,986,word,2,True,7,1.1419339179992676,1,
R2417,honderías,987,word,1,True,7,0.7059817314147949,2,
R2417,barrerá,988,word,1,False,7,0.9830522537231445,1,
R2417,ciperás,989,word,1,True,7,0.5407760143280029,2,
R2417,vultarás,990,word,1,True,7,0.6041111946105957,2,
R2417,morderán,991,word,2,True,7,1.1098618507385254,1,
R2417,riterán,992,word,1,True,7,0.5809199810028076,2,
R2417,rondarías,993,word,1,False,7,0.6200010776519775,1,
R2417,anrerá,994,word,1,True,7,0.52994704246521,2,
R2417,mardirías,995,word,1,True,7,0.6007952690124512,2,
R2417,mardiremos,996,word,1,True,7,0.6009588241577148,2,
R2417,cosías,997,word,1,False,7,0.8489670753479004,1,
R2417,partirían,998,word,1,False,7,1.9440288543701172,1,
R2417,cumplirán,999,word,2,True,7,1.2619237899780273,1,
R2417,cubrirás,1000,word,2,True,7,1.776087999343872,1,
R2417,bimaremos,1001,word,1,True,7,0.7679967880249023,2,
R2417,cederemos,1002,word,1,False,7,0.8518679141998291,1,
R2417,meteremos,1003,word,1,False,7,1.0819370746612549,1,
R2417,ardía,1004,word,2,True,7,0.9470160007476807,1,
R2417,pavaba,1005,word,1,True,7,0.6069209575653076,2,
R2417,anría,1006,word,1,True,7,1.2398290634155273,2,
R2417,mordías,1007,word,2,True,7,1.4131340980529785,1,
R2417,cubrirán,1008,word,2,True,7,0.9152839183807373,1,
R2417,lorgaríamos,1009,word,1,True,7,1.5595531463623047,2,
R2417,porerá,1010,word,2,False,7,1.9559078216552734,2,
R2417,tuplirían,1011,word,1,True,7,0.703895092010498,2,
R2417,subirán,1012,word,2,True,7,1.0999598503112793,1,
R2417,ceflerás,1013,word,1,True,7,0.5885522365570068,2,
R2417,rayaban,1014,word,2,True,7,0.8200199604034424,1,
R2417,cubriría,1015,word,2,True,7,0.9989190101623535,1,
R2417,faltaríamos,1016,word,2,True,7,3.2449300289154053,1,
R2417,somían,1017,word,1,True,7,1.4548897743225098,2,
R2417,imían,1018,word,1,True,7,0.7489149570465088,2,
R2417,fundirá,1019,word,1,False,7,2.1098010540008545,1,
R2417,juraré,1020,word,2,True,7,0.6638422012329102,1,
R2417,narraríamos,1021,word,1,False,7,1.9415349960327148,1,
R2417,charlarán,1022,word,2,True,7,1.0890488624572754,1,
R2417,runábamos,1023,word,1,True,7,1.7130389213562012,2,
R2417,partiríamos,1024,word,1,False,7,1.3468449115753174,1,
R2417,mordíamos,1025,word,1,False,7,0.9419326782226562,1,
R2417,burraré,1026,word,1,True,7,0.9339420795440674,2,
R2417,ciperé,1027,word,1,True,7,0.5709540843963623,2,
R2417,pactarían,1028,word,1,False,7,0.5309419631958008,1,
R2417,arderé,1029,word,1,False,7,0.9449210166931152,1,
R2417,correrías,1030,word,2,True,7,0.8929169178009033,1,
R2417,lorgaban,1031,word,1,True,7,1.1798510551452637,2,
R2417,correremos,1032,word,1,False,7,2.296898126602173,1,
R2417,pactarán,1033,word,1,False,7,0.7695279121398926,1,
R2417,rayarás,1034,word,2,True,7,0.8361139297485352,1,
R2417,bigaría,1035,word,1,True,7,0.6640219688415527,2,
R2417,retará,1036,word,1,False,7,0.7689049243927002,1,
R2417,rimaría,1037,word,1,False,7,0.537855863571167,1,
R2417,luntirías,1038,word,1,True,7,0.5379598140716553,2,
R2417,gachabas,1039,word,2,False,7,0.7281920909881592,2,
R2417,cumpliré,1040,word,2,True,7,0.5934891700744629,1,
R2417,lailabas,1041,word,1,True,7,0.6071872711181641,2,
R2417,galarían,1042,word,2,False,7,0.9608707427978516,2,
R2417,meterían,1043,word,2,True,7,0.9707987308502197,1,
R2417,cenaba,1044,word,2,True,7,0.7370860576629639,1,
R2417,somerán,1045,word,1,True,7,1.5270116329193115,2,
R2417,cenabas,1046,word,2,True,7,0.6108458042144775,1,
R2417,pactaban,1047,word,1,False,7,0.6502859592437744,1,
R2417,mertaremos,1048,word,1,True,7,0.9199161529541016,2,
R2417,mertarán,1049,word,1,True,7,0.8994040489196777,2,
R2417,casarán,1050,word,2,True,7,0.734874963760376,1,
R2417,tujirían,1051,word,1,True,7,0.624732255935669,2,
R2417,cichiremos,1052,word,1,True,7,0.5638279914855957,2,
R2417,somía,1053,word,1,True,7,0.7701129913330078,2,
R2417,ceflíamos,1054,word,1,True,7,0.6668872833251953,2,
R2417,vendíamos,1055,word,1,False,7,1.004884958267212,1,
R2417,moncía,1056,word,1,True,7,0.5710229873657227,2,
R2417,runabas,1057,word,1,True,7,0.7082901000976562,2,
R2417,cosía,1058,word,2,True,7,0.8128001689910889,1,
R2417,imías,1059,word,1,True,7,0.9937679767608643,2,
R2417,narraré,1060,word,2,True,7,1.0989511013031006,1,
R2417,anreríamos,1061,word,1,True,7,0.6460409164428711,2,
R2417,cedería,1062,word,1,False,7,1.0649309158325195,1,
R2417,besabas,1063,word,2,True,7,0.641028881072998,1,
R2417,burraríamos,1064,word,1,True,7,0.5654089450836182,2,
R2417,galábamos,1065,word,1,True,7,1.081939935684204,2,
R2417,vendía,1066,word,2,True,7,2.8854877948760986,1,
R2417,mardía,1067,word,1,True,7,0.6349260807037354,2,
R2417,tuplirías,1068,word,1,True,7,0.5829379558563232,2,
R2417,lachíamos,1069,word,1,True,7,0.9700312614440918,2,
R2417,bimará,1070,word,1,True,7,0.5260601043701172,2,
R2417,rayarán,1071,word,2,True,7,0.6989457607269287,1,
R2417,mertarías,1072,word,1,True,7,0.7258861064910889,2,
R2417,venderías,1073,word,2,True,7,0.7240090370178223,1,
R2417,cumpliría,1074,word,2,True,7,0.6920287609100342,1,
R2417,bimaba,1075,word,1,True,7,0.6419317722320557,2,
R2417,cichían,1076,word,1,True,7,0.7786920070648193,2,
R2417,cipería,1077,word,1,True,7,0.4818592071533203,2,
R2417,cederíamos,1078,word,1,False,7,2.351357936859131,1,
R2417,toserán,1079,word,2,True,7,1.1850159168243408,1,
R2417,cubrirá,1080,word,2,True,7,0.8408651351928711,1,
R2417,vultaba,1081,word,1,True,7,0.8409059047698975,2,
R2417,cisarían,1082,word,1,True,7,0.6473851203918457,2,
R2417,runaré,1083,word,1,True,7,0.6098532676696777,2,
R2417,venderemos,1084,word,2,True,7,0.8954360485076904,1,
R2417,cederás,1085,word,1,False,7,2.6081159114837646,1,
R2417,mardiré,1086,word,1,True,7,0.8190178871154785,2,
R2417,corrían,1087,word,2,True,7,1.1068100929260254,1,
R2417,venderá,1088,word,2,True,7,0.6211187839508057,1,
R2417,zusaremos,1089,word,1,True,7,0.6618533134460449,2,
R2417,anreré,1090,word,1,True,7,0.7319741249084473,2,
R2417,barreré,1091,word,1,False,7,0.5110459327697754,1,
R2417,subirían,1092,word,2,True,7,1.7599711418151855,1,
