participant,stimuli,trialNum,target_type,response,correct,block,reaction_time,trigger,
R2422,sufriría,1,word,2,True,1,0.9978847503662109,1,
R2422,rotará,2,word,2,True,1,1.4551396369934082,1,
R2422,formaremos,3,word,2,True,1,1.65004301071167,1,
R2422,comeré,4,word,2,True,1,0.8158867359161377,1,
R2422,charlará,5,word,2,True,1,1.7390120029449463,1,
R2422,cortará,6,word,2,True,1,0.9627268314361572,1,
R2422,sufrías,7,word,2,True,1,1.2369599342346191,1,
R2422,eplaremos,8,word,1,True,1,0.8405129909515381,2,
R2422,cumpliríamos,9,word,2,True,1,1.1778020858764648,1,
R2422,monceré,10,word,1,True,1,1.2359633445739746,2,
R2422,cosería,11,word,2,True,1,0.8060517311096191,1,
R2422,galarás,12,word,1,True,1,1.7539281845092773,2,
R2422,toseremos,13,word,2,True,1,0.9647359848022461,1,
R2422,vultaré,14,word,1,True,1,1.6459431648254395,2,
R2422,eplabas,15,word,1,True,1,1.3528010845184326,2,
R2422,sumaba,16,word,2,True,1,0.7228972911834717,1,
R2422,honderías,17,word,1,True,1,1.4149508476257324,2,
R2422,partiremos,18,word,2,True,1,1.2530059814453125,1,
R2422,besarás,19,word,2,True,1,0.7968299388885498,1,
R2422,fundiré,20,word,2,True,1,0.861058235168457,1,
R2422,lorgaré,21,word,1,True,1,1.1989178657531738,2,
R2422,monceremos,22,word,1,True,1,1.5479609966278076,2,
R2422,vendíamos,23,word,2,True,1,1.0529110431671143,1,
R2422,pavaba,24,word,1,True,1,1.1910769939422607,2,
R2422,cuarría,25,word,1,True,1,1.5208241939544678,2,
R2422,arderíamos,26,word,2,True,1,1.3400559425354004,1,
R2422,galábamos,27,word,1,True,1,1.4329919815063477,2,
R2422,maftaba,28,word,1,True,1,1.1778409481048584,2,
R2422,lacherías,29,word,1,True,1,1.5529258251190186,2,
R2422,porían,30,word,1,True,1,1.24098801612854,2,
R2422,rimará,31,word,2,True,1,1.3329150676727295,1,
R2422,cichirían,32,word,1,True,1,1.302903175354004,2,
R2422,eplaba,33,word,1,True,1,0.783958911895752,2,
R2422,burraban,34,word,1,True,1,1.2831177711486816,2,
R2422,lacherá,35,word,1,True,1,1.4738759994506836,2,
R2422,besaríamos,36,word,2,True,1,0.745995044708252,1,
R2422,temería,37,word,2,True,1,0.9538869857788086,1,
R2422,cichía,38,word,1,True,1,0.9680469036102295,2,
R2422,metían,39,word,2,True,1,0.7259080410003662,1,
R2422,partías,40,word,2,True,1,0.9490070343017578,1,
R2422,sumaría,41,word,2,True,1,0.7324788570404053,1,
R2422,zusaremos,42,word,1,True,1,2.4330410957336426,2,
R2422,pavabas,43,word,1,True,1,0.9850897789001465,2,
R2422,bimabas,44,word,1,True,1,1.4709007740020752,2,
R2422,bruviría,45,word,1,True,1,1.3588769435882568,2,
R2422,quijarían,46,word,1,True,1,1.6329269409179688,2,
R2422,lucharían,47,word,2,True,1,0.7289938926696777,1,
R2422,luntías,48,word,1,True,1,1.1628479957580566,2,
R2422,gachabas,49,word,1,True,1,1.1879169940948486,2,
R2422,zusarán,50,word,1,True,1,2.1880099773406982,2,
R2422,rayaré,51,word,2,True,1,1.121086835861206,1,
R2422,imirían,52,word,1,True,1,1.3909213542938232,2,
R2422,honderé,53,word,1,True,1,1.218095064163208,2,
R2422,cedíamos,54,word,2,True,1,0.8950731754302979,1,
R2422,cumplías,55,word,2,True,1,0.8538873195648193,1,
R2422,metería,56,word,2,True,1,0.7399051189422607,1,
R2422,cubríamos,57,word,2,True,1,0.6693148612976074,1,
R2422,coserás,58,word,2,True,1,0.7767801284790039,1,
R2422,besarán,59,word,2,True,1,0.5460958480834961,1,
R2422,pavará,60,word,1,True,1,0.9200308322906494,2,
R2422,rayarás,61,word,2,True,1,0.8119339942932129,1,
R2422,mardiría,62,word,1,True,1,1.1860437393188477,2,
R2422,narraría,63,word,2,True,1,1.4697649478912354,1,
R2422,sumarías,64,word,2,True,1,0.9540948867797852,1,
R2422,lorgaría,65,word,1,True,1,0.995074987411499,2,
R2422,bruvías,66,word,1,True,1,1.0721328258514404,2,
R2422,quemaría,67,word,2,True,1,0.7960600852966309,1,
R2422,correrá,68,word,2,True,1,0.7961220741271973,1,
R2422,chanraríamos,69,word,1,True,1,1.83571195602417,2,
R2422,correríamos,70,word,2,True,1,1.0609400272369385,1,
R2422,somían,71,word,1,True,1,1.2688758373260498,2,
R2422,rayaríamos,72,word,2,True,1,1.0419979095458984,1,
R2422,someré,73,word,1,True,1,1.6910438537597656,2,
R2422,nadaba,74,word,2,True,1,0.8101589679718018,1,
R2422,narraban,75,word,2,True,1,2.1171088218688965,1,
R2422,barrían,76,word,2,True,1,0.9977381229400635,1,
R2422,retaré,77,word,2,True,1,1.0586330890655518,1,
R2422,gacharemos,78,word,1,True,1,1.5419609546661377,2,
R2422,rotarías,79,word,2,True,1,0.7998640537261963,1,
R2422,rimaban,80,word,2,True,1,1.19474196434021,1,
R2422,tujirás,81,word,1,True,1,0.9659421443939209,2,
R2422,fanían,82,word,1,True,1,1.1799218654632568,2,
R2422,chanraría,83,word,1,True,1,1.512152910232544,2,
R2422,lorgará,84,word,1,True,1,1.2799229621887207,2,
R2422,jurarían,85,word,2,True,1,0.9790511131286621,1,
R2422,quijaban,86,word,1,True,1,1.6943559646606445,2,
R2422,tosíamos,87,word,2,True,1,0.8679499626159668,1,
R2422,imiremos,88,word,1,True,1,1.2749860286712646,2,
R2422,rimabas,89,word,2,True,1,0.8872640132904053,1,
R2422,fanía,90,word,2,False,1,1.300853967666626,2,
R2422,quijarán,91,word,1,True,1,1.201888084411621,2,
R2422,hondería,92,word,1,True,1,1.2509651184082031,2,
R2422,lorgarán,93,word,1,True,1,1.4220161437988281,2,
R2422,barrías,94,word,2,True,1,0.8570840358734131,1,
R2422,unirán,95,word,2,True,1,0.960961103439331,1,
R2422,juraríamos,96,word,2,True,1,1.199141263961792,1,
R2422,cuarrirías,97,word,1,True,1,1.9750189781188965,2,
R2422,luchará,98,word,2,True,1,1.5937190055847168,1,
R2422,cetaba,99,word,1,True,1,1.4641129970550537,2,
R2422,venderán,100,word,2,True,1,1.1389169692993164,1,
R2422,lorgaríamos,101,word,1,True,1,1.4240529537200928,2,
R2422,pactabas,102,word,2,True,1,1.3780627250671387,1,
R2422,fundirías,103,word,2,True,1,1.2399840354919434,1,
R2422,cisaba,104,word,1,True,1,1.158041000366211,2,
R2422,gachábamos,105,word,1,True,1,1.2680950164794922,2,
R2422,vendías,106,word,2,True,1,0.7299158573150635,1,
R2422,luchaba,107,word,2,True,1,0.7180590629577637,1,
R2422,venderían,108,word,2,True,1,0.8709812164306641,1,
R2422,cubriríamos,109,word,2,True,1,1.3249869346618652,1,
R2422,runaré,110,word,1,True,1,1.6120140552520752,2,
R2422,maftarías,111,word,1,True,1,1.224945068359375,2,
R2422,frinderá,112,word,1,True,1,1.7280220985412598,2,
R2422,correrías,113,word,2,True,1,1.095909833908081,1,
R2422,anrerán,114,word,1,True,1,1.6359663009643555,2,
R2422,temía,115,word,2,True,1,0.6629421710968018,1,
R2422,rotaban,116,word,2,True,1,0.8159701824188232,1,
R2422,formaban,117,word,2,True,1,0.9438672065734863,1,
R2422,lamíamos,118,word,2,True,1,1.3059461116790771,1,
R2422,cortarías,119,word,2,True,1,1.0085968971252441,1,
R2422,sesía,120,word,1,True,1,1.299532175064087,2,
R2422,cumplía,121,word,2,True,1,0.7999601364135742,1,
R2422,runará,122,word,1,True,1,1.1628758907318115,2,
R2422,tujía,123,word,1,True,1,1.1348989009857178,2,
R2422,venderás,124,word,2,True,1,0.690072774887085,1,
R2422,quemaré,125,word,2,True,1,0.7249979972839355,1,
R2422,porías,126,word,1,True,1,1.2459640502929688,2,
R2422,meterían,127,word,2,True,1,0.8029181957244873,1,
R2422,corría,128,word,2,True,1,0.9642291069030762,1,
R2422,pavaríamos,129,word,1,True,1,1.2790911197662354,2,
R2422,nadará,130,word,2,True,1,1.372818946838379,1,
R2422,ciperán,131,word,1,True,1,1.2802069187164307,2,
R2422,sesíamos,132,word,1,True,1,1.2018840312957764,2,
R2422,cumplirás,133,word,2,True,1,1.0460562705993652,1,
R2422,chanrabas,134,word,1,True,1,1.4203572273254395,2,
R2422,tupliríamos,135,word,1,True,1,2.370192050933838,2,
R2422,besaremos,136,word,2,True,1,0.7325830459594727,1,
R2422,corrían,137,word,2,True,1,0.681145191192627,1,
R2422,tujías,138,word,1,True,1,1.0280859470367432,2,
R2422,cortaré,139,word,2,True,1,0.8700001239776611,1,
R2422,cenaré,140,word,2,True,1,0.6811819076538086,1,
R2422,bimaría,141,word,1,True,1,1.0561449527740479,2,
R2422,retarían,142,word,2,True,1,1.2040140628814697,1,
R2422,obrabas,143,word,2,True,1,1.5771489143371582,1,
R2422,rondará,144,word,2,True,1,1.6361289024353027,1,
R2422,temíamos,145,word,2,True,1,0.7032279968261719,1,
R2422,morderán,146,word,2,True,1,0.8111569881439209,1,
R2422,vultará,147,word,1,True,1,1.1979939937591553,2,
R2422,sindará,148,word,1,True,1,2.187721014022827,2,
R2422,charlaríamos,149,word,2,True,1,1.483030080795288,1,
R2422,formarán,150,word,2,True,1,1.0399222373962402,1,
R2422,anríamos,151,word,1,True,1,1.1848199367523193,2,
R2422,meterán,152,word,2,True,1,0.7970571517944336,1,
R2422,cubriría,153,word,2,True,1,1.0063121318817139,1,
R2422,retará,154,word,2,True,1,1.0000221729278564,1,
R2422,nadarían,155,word,2,True,1,1.0020411014556885,1,
R2422,fundiría,156,word,2,True,1,1.1898760795593262,1,
R2422,chanraba,157,word,1,True,2,1.2999730110168457,2,
R2422,cortaban,158,word,2,True,2,0.7229189872741699,1,
R2422,partiré,159,word,2,True,2,0.9589550495147705,1,
R2422,temerá,160,word,2,True,2,0.8198661804199219,1,
R2422,cederías,161,word,2,True,2,1.0889363288879395,1,
R2422,poría,162,word,1,True,2,1.215087890625,2,
R2422,rondarías,163,word,2,True,2,0.9568362236022949,1,
R2422,vendía,164,word,2,True,2,0.7198371887207031,1,
R2422,luntirías,165,word,1,True,2,1.3558919429779053,2,
R2422,lailaban,166,word,1,True,2,1.2871501445770264,2,
R2422,mertaba,167,word,1,True,2,1.182861089706421,2,
R2422,mertarán,168,word,1,True,2,1.4609887599945068,2,
R2422,cortábamos,169,word,2,True,2,0.9099080562591553,1,
R2422,cichiremos,170,word,1,True,2,2.0591189861297607,2,
R2422,maftarán,171,word,1,True,2,1.010113000869751,2,
R2422,bailaba,172,word,2,True,2,0.89792799949646,1,
R2422,tosería,173,word,2,True,2,0.9771051406860352,1,
R2422,retaría,174,word,2,True,2,0.7204799652099609,1,
R2422,subirías,175,word,2,True,2,0.9068050384521484,1,
R2422,galará,176,word,1,True,2,1.1699669361114502,2,
R2422,sauaría,177,word,1,True,2,1.3619441986083984,2,
R2422,mardirá,178,word,1,True,2,1.3909499645233154,2,
R2422,zusará,179,word,1,True,2,1.4687740802764893,2,
R2422,sufriríamos,180,word,2,True,2,1.7199921607971191,1,
R2422,bigarías,181,word,1,True,2,1.1818270683288574,2,
R2422,sindarías,182,word,1,True,2,1.429908037185669,2,
R2422,cichíamos,183,word,1,True,2,1.2139909267425537,2,
R2422,cuarrirás,184,word,1,True,2,2.291882038116455,2,
R2422,mardirás,185,word,1,True,2,1.3981330394744873,2,
R2422,tujirá,186,word,1,True,2,1.1499419212341309,2,
R2422,sufría,187,word,2,True,2,0.8069250583648682,1,
R2422,cumplirían,188,word,2,True,2,1.4609599113464355,1,
R2422,besabas,189,word,2,True,2,0.648047924041748,1,
R2422,fundirán,190,word,2,True,2,0.9877970218658447,1,
R2422,pavarían,191,word,1,True,2,0.9911351203918457,2,
R2422,faltarías,192,word,2,True,2,0.967975378036499,1,
R2422,cederán,193,word,2,True,2,0.8346669673919678,1,
R2422,lailaría,194,word,1,True,2,1.080873966217041,2,
R2422,hondíamos,195,word,1,True,2,1.1629879474639893,2,
R2422,uniríamos,196,word,2,True,2,1.3282098770141602,1,
R2422,eplarás,197,word,1,True,2,1.0300512313842773,2,
R2422,cetíamos,198,word,1,True,2,1.0609829425811768,2,
R2422,ceterá,199,word,1,True,2,0.9751040935516357,2,
R2422,honderemos,200,word,1,True,2,1.1910808086395264,2,
R2422,cubría,201,word,2,True,2,0.6910650730133057,1,
R2422,bimaremos,202,word,1,True,2,1.0974671840667725,2,
R2422,cichías,203,word,1,True,2,0.8731510639190674,2,
R2422,moncían,204,word,1,True,2,0.9830658435821533,2,
R2422,cetarían,205,word,1,True,2,1.221067190170288,2,
R2422,galaría,206,word,1,True,2,1.3340349197387695,2,
R2422,eplaban,207,word,1,True,2,0.8123419284820557,2,
R2422,cisaban,208,word,1,True,2,1.642024040222168,2,
R2422,tujiríamos,209,word,1,True,2,1.13889479637146,2,
R2422,bailarían,210,word,2,True,2,0.7138912677764893,1,
R2422,cubrirás,211,word,2,True,2,0.9698481559753418,1,
R2422,anrerás,212,word,1,True,2,1.1850650310516357,2,
R2422,galaré,213,word,1,True,2,0.9881777763366699,2,
R2422,cenarían,214,word,2,True,2,0.8406720161437988,1,
R2422,sesías,215,word,1,True,2,0.903033971786499,2,
R2422,fanerás,216,word,1,True,2,1.0156056880950928,2,
R2422,faltabas,217,word,2,True,2,0.7929489612579346,1,
R2422,cetaríamos,218,word,1,True,2,1.0330901145935059,2,
R2422,fundía,219,word,2,True,2,0.7709228992462158,1,
R2422,rayaban,220,word,2,True,2,0.7247188091278076,1,
R2422,tuplirás,221,word,1,True,2,1.2459862232208252,2,
R2422,sumaremos,222,word,2,True,2,0.9780130386352539,1,
R2422,gruñiríamos,223,word,2,True,2,2.153879165649414,1,
R2422,quijábamos,224,word,1,True,2,2.300081968307495,2,
R2422,faltaré,225,word,2,True,2,0.8688771724700928,1,
R2422,cumplían,226,word,2,True,2,0.9468410015106201,1,
R2422,gacharíamos,227,word,1,True,2,0.9520900249481201,2,
R2422,lachería,228,word,1,True,2,2.2599971294403076,2,
R2422,cortabas,229,word,2,True,2,0.7100090980529785,1,
R2422,rimaba,230,word,2,True,2,0.740814208984375,1,
R2422,tujíamos,231,word,1,True,2,0.8850929737091064,2,
R2422,prendería,232,word,2,True,2,0.6791348457336426,1,
R2422,focarías,233,word,1,True,2,1.0779750347137451,2,
R2422,charlarán,234,word,2,True,2,1.5970158576965332,1,
R2422,tuplirías,235,word,1,True,2,1.0319349765777588,2,
R2422,runarían,236,word,1,True,2,1.0209379196166992,2,
R2422,cosíamos,237,word,2,True,2,0.9764180183410645,1,
R2422,gachaban,238,word,1,True,2,0.9139389991760254,2,
R2422,focaban,239,word,1,True,2,1.017930269241333,2,
R2422,focaba,240,word,1,True,2,1.130094051361084,2,
R2422,vultarían,241,word,1,True,2,1.1429588794708252,2,
R2422,quijaba,242,word,1,True,2,0.9779758453369141,2,
R2422,maftará,243,word,1,True,2,0.7851238250732422,2,
R2422,frinderemos,244,word,1,True,2,1.1720271110534668,2,
R2422,quemarías,245,word,2,True,2,0.9531171321868896,1,
R2422,mardiríamos,246,word,1,True,2,1.512056827545166,2,
R2422,poríamos,247,word,1,True,2,1.084007978439331,2,
R2422,formaba,248,word,2,True,2,0.8559970855712891,1,
R2422,maftabas,249,word,1,True,2,0.7979130744934082,2,
R2422,prendías,250,word,2,True,2,0.7799630165100098,1,
R2422,retabas,251,word,2,True,2,0.8238699436187744,1,
R2422,barreremos,252,word,2,True,2,1.1788370609283447,1,
R2422,quemaríamos,253,word,2,True,2,0.8258531093597412,1,
R2422,somerán,254,word,1,True,2,1.647036075592041,2,
R2422,partiría,255,word,2,True,2,1.0589029788970947,1,
R2422,frinderé,256,word,1,True,2,0.9709188938140869,2,
R2422,sufrían,257,word,2,True,2,0.7208549976348877,1,
R2422,temerán,258,word,2,True,2,1.0669760704040527,1,
R2422,mardías,259,word,1,True,2,0.8159711360931396,2,
R2422,sumarás,260,word,2,True,2,1.0939791202545166,1,
R2422,moncías,261,word,1,True,2,0.8490641117095947,2,
R2422,cipías,262,word,1,True,2,1.022049903869629,2,
R2422,obrarías,263,word,2,True,2,1.5331511497497559,1,
R2422,bailarás,264,word,2,True,2,1.765923023223877,1,
R2422,rayaba,265,word,2,True,2,0.6740121841430664,1,
R2422,meteré,266,word,2,True,2,1.0557608604431152,1,
R2422,eplábamos,267,word,1,True,2,0.8039638996124268,2,
R2422,pactarían,268,word,2,True,2,0.9699230194091797,1,
R2422,lacheríamos,269,word,1,True,2,1.7189950942993164,2,
R2422,focaríamos,270,word,1,True,2,1.0070610046386719,2,
R2422,venderemos,271,word,2,True,2,1.0230491161346436,1,
R2422,riteré,272,word,1,True,2,1.3545372486114502,2,
R2422,bruviré,273,word,1,True,2,1.4909000396728516,2,
R2422,cumplirá,274,word,2,True,2,1.4223408699035645,1,
R2422,cichían,275,word,1,True,2,1.0089049339294434,2,
R2422,sindábamos,276,word,1,True,2,1.4170730113983154,2,
R2422,lachía,277,word,1,True,2,0.9859211444854736,2,
R2422,obraré,278,word,2,True,2,0.878089427947998,1,
R2422,zusabas,279,word,1,True,2,0.8682501316070557,2,
R2422,gruñía,280,word,2,True,2,0.96187424659729,1,
R2422,quijará,281,word,1,True,2,1.3480279445648193,2,
R2422,narrabas,282,word,2,True,2,1.4418928623199463,1,
R2422,anrerá,283,word,1,True,2,0.8659641742706299,2,
R2422,gacharía,284,word,1,True,2,1.14790678024292,2,
R2422,hondía,285,word,1,True,2,1.2670989036560059,2,
R2422,frinderíamos,286,word,1,True,2,1.3169870376586914,2,
R2422,rayarían,287,word,2,True,2,0.8828668594360352,1,
R2422,mordías,288,word,2,True,2,0.8860929012298584,1,
R2422,barrerás,289,word,2,True,2,1.1210410594940186,1,
R2422,tosías,290,word,2,True,2,0.7910051345825195,1,
R2422,riterán,291,word,1,True,2,1.0649683475494385,2,
R2422,nadaría,292,word,2,True,2,0.848107099533081,1,
R2422,cortarás,293,word,2,True,2,0.7359580993652344,1,
R2422,seseríamos,294,word,1,True,2,1.0090460777282715,2,
R2422,ceflían,295,word,1,True,2,1.6239328384399414,2,
R2422,ardían,296,word,2,True,2,0.7698361873626709,1,
R2422,gacharías,297,word,1,True,2,0.9619998931884766,2,
R2422,chanraremos,298,word,1,True,2,1.41001296043396,2,
R2422,obrarían,299,word,2,True,2,1.4008550643920898,1,
R2422,lamían,300,word,2,True,2,0.7709469795227051,1,
R2422,somerían,301,word,2,False,2,1.110656976699829,2,
R2422,gruñíamos,302,word,2,True,2,1.0980257987976074,1,
R2422,lorgaban,303,word,1,True,2,1.1199727058410645,2,
R2422,cichiríamos,304,word,1,True,2,1.0390758514404297,2,
R2422,sauarías,305,word,1,True,2,1.867030143737793,2,
R2422,bailarías,306,word,2,True,2,1.2135989665985107,1,
R2422,uniría,307,word,2,True,2,0.8299379348754883,1,
R2422,anrería,308,word,1,True,2,0.8379950523376465,2,
R2422,quemarían,309,word,2,True,2,0.9424769878387451,1,
R2422,fundirían,310,word,2,True,2,1.3359739780426025,1,
R2422,seserá,311,word,1,True,2,0.7329206466674805,2,
R2422,luchábamos,312,word,2,True,2,1.01997971534729,1,
R2422,narraríamos,313,word,2,True,3,1.5510683059692383,1,
R2422,narraremos,314,word,2,True,3,1.3206958770751953,1,
R2422,obraba,315,word,2,True,3,1.069943904876709,1,
R2422,sauaremos,316,word,1,True,3,0.8880500793457031,2,
R2422,venderá,317,word,2,True,3,0.6719160079956055,1,
R2422,sauarás,318,word,1,True,3,0.8423631191253662,2,
R2422,burrábamos,319,word,1,True,3,1.474947214126587,2,
R2422,sindaba,320,word,1,True,3,0.9769647121429443,2,
R2422,temerías,321,word,2,True,3,0.882922887802124,1,
R2422,sauabas,322,word,1,True,3,1.0494389533996582,2,
R2422,barrería,323,word,2,True,3,1.770677089691162,1,
R2422,lucharías,324,word,2,True,3,0.9169039726257324,1,
R2422,luntirán,325,word,1,True,3,0.8483290672302246,2,
R2422,moncerán,326,word,1,True,3,1.3431141376495361,2,
R2422,lacherán,327,word,1,True,3,0.8569018840789795,2,
R2422,lailaremos,328,word,1,True,3,0.9149906635284424,2,
R2422,metíamos,329,word,2,True,3,0.7549991607666016,1,
R2422,charlarías,330,word,2,True,3,1.4500620365142822,1,
R2422,sauaba,331,word,1,True,3,1.5569496154785156,2,
R2422,toserá,332,word,2,True,3,0.8167879581451416,1,
R2422,cisaría,333,word,1,True,3,0.8519701957702637,2,
R2422,cuarriría,334,word,1,True,3,1.602858066558838,2,
R2422,vendería,335,word,2,True,3,1.0219950675964355,1,
R2422,tuplías,336,word,1,True,3,1.4139060974121094,2,
R2422,corríamos,337,word,2,True,3,0.7869329452514648,1,
R2422,sufriremos,338,word,2,True,3,1.0608949661254883,1,
R2422,sindaban,339,word,1,True,3,0.9364101886749268,2,
R2422,luntiré,340,word,1,True,3,0.9968700408935547,2,
R2422,focará,341,word,1,True,3,1.2929279804229736,2,
R2422,burrarías,342,word,1,True,3,1.2990710735321045,2,
R2422,gacharé,343,word,1,True,3,0.9749150276184082,2,
R2422,fanías,344,word,1,True,3,0.8488588333129883,2,
R2422,rondaríamos,345,word,2,True,3,1.3258819580078125,1,
R2422,nadabas,346,word,2,True,3,0.7091200351715088,1,
R2422,lailaba,347,word,1,True,3,0.8241729736328125,2,
R2422,pactaría,348,word,2,True,3,1.277683973312378,1,
R2422,frinderías,349,word,1,True,3,0.857928991317749,2,
R2422,runaba,350,word,1,True,3,0.9581000804901123,2,
R2422,chanrarías,351,word,1,True,3,1.2219009399414062,2,
R2422,morderá,352,word,2,True,3,0.7929747104644775,1,
R2422,eplarías,353,word,1,True,3,0.7158699035644531,2,
R2422,bailarán,354,word,2,True,3,1.011066198348999,1,
R2422,tujirías,355,word,1,True,3,0.6960840225219727,2,
R2422,nadarías,356,word,2,True,3,0.6910369396209717,1,
R2422,sufrirías,357,word,2,True,3,0.9620139598846436,1,
R2422,nadaban,358,word,2,True,3,0.8558700084686279,1,
R2422,chanrará,359,word,1,True,3,0.8898980617523193,2,
R2422,toserán,360,word,2,True,3,0.7766530513763428,1,
R2422,zusaríamos,361,word,1,True,3,0.8558731079101562,2,
R2422,riteremos,362,word,1,True,3,0.9540500640869141,2,
R2422,burraremos,363,word,1,True,3,1.6058318614959717,2,
R2422,charlábamos,364,word,2,True,3,1.795064926147461,1,
R2422,pactará,365,word,2,True,3,0.8254961967468262,1,
R2422,moncerás,366,word,1,True,3,0.8229339122772217,2,
R2422,cichiré,367,word,2,False,3,0.7390713691711426,2,
R2422,fanerá,368,word,1,True,3,0.8484668731689453,2,
R2422,barrerá,369,word,2,True,3,1.0069348812103271,1,
R2422,ceflerían,370,word,1,True,3,0.8644161224365234,2,
R2422,fanerían,371,word,1,True,3,0.9941339492797852,2,
R2422,barrerían,372,word,2,True,3,1.0898449420928955,1,
R2422,ceflerá,373,word,1,True,3,0.7420380115509033,2,
R2422,bimarían,374,word,1,True,3,1.4667441844940186,2,
R2422,cumpliría,375,word,2,True,3,0.8149752616882324,1,
R2422,mertaremos,376,word,1,True,3,1.560110092163086,2,
R2422,bigabas,377,word,1,True,3,1.4070162773132324,2,
R2422,obraríamos,378,word,2,True,3,1.1689891815185547,1,
R2422,casarían,379,word,2,True,3,1.178981065750122,1,
R2422,galaríamos,380,word,1,True,3,0.7987902164459229,2,
R2422,comerás,381,word,2,True,3,0.7490429878234863,1,
R2422,anrerías,382,word,1,True,3,0.9150698184967041,2,
R2422,mertábamos,383,word,1,True,3,1.1279261112213135,2,
R2422,gachará,384,word,1,True,3,0.8151018619537354,2,
R2422,cenábamos,385,word,2,True,3,0.919288158416748,1,
R2422,lucharé,386,word,2,True,3,0.9609391689300537,1,
R2422,unías,387,word,2,True,3,1.1909921169281006,1,
R2422,imirías,388,word,1,True,3,1.494055986404419,2,
R2422,partirás,389,word,2,True,3,1.3431098461151123,1,
R2422,subiremos,390,word,2,True,3,0.8820188045501709,1,
R2422,partían,391,word,2,True,3,1.2110679149627686,1,
R2422,cortaba,392,word,2,True,3,0.8068759441375732,1,
R2422,rimaríamos,393,word,2,True,3,2.220913887023926,1,
R2422,ciperé,394,word,1,True,3,0.7755589485168457,2,
R2422,rondaremos,395,word,2,True,3,1.3349878787994385,1,
R2422,porerá,396,word,1,True,3,0.9830830097198486,2,
R2422,juraba,397,word,2,True,3,1.4349696636199951,1,
R2422,arderán,398,word,2,True,3,1.3611040115356445,1,
R2422,faneremos,399,word,1,True,3,0.867793083190918,2,
R2422,besaré,400,word,2,True,3,0.7159590721130371,1,
R2422,meterías,401,word,2,True,3,1.2007737159729004,1,
R2422,juraré,402,word,2,True,3,1.4583439826965332,1,
R2422,ritías,403,word,1,True,3,0.9170472621917725,2,
R2422,comerán,404,word,2,True,3,0.7699398994445801,1,
R2422,quijaré,405,word,1,True,3,1.8129608631134033,2,
R2422,bimarás,406,word,1,True,3,1.636897087097168,2,
R2422,cumpliré,407,word,2,True,3,1.1380999088287354,1,
R2422,poreremos,408,word,1,True,3,0.9419240951538086,2,
R2422,burraría,409,word,1,True,3,1.3448138236999512,2,
R2422,unirá,410,word,2,True,3,0.9280271530151367,1,
R2422,luntiríamos,411,word,1,True,3,2.1868810653686523,2,
R2422,mordían,412,word,2,True,3,1.0529699325561523,1,
R2422,zusaban,413,word,1,True,3,1.2009258270263672,2,
R2422,ceflerán,414,word,1,True,3,1.0058948993682861,2,
R2422,casábamos,415,word,2,True,3,0.826819896697998,1,
R2422,rotaré,416,word,2,True,3,2.475006103515625,1,
R2422,vendían,417,word,2,True,3,0.8570139408111572,1,
R2422,pactaremos,418,word,2,True,3,1.106489896774292,1,
R2422,nadarán,419,word,2,True,3,1.1238880157470703,1,
R2422,tuplirán,420,word,1,True,3,2.2180678844451904,2,
R2422,subía,421,word,2,True,3,1.0909597873687744,1,
R2422,narrarían,422,word,2,True,3,0.9708847999572754,1,
R2422,bimarán,423,word,1,True,3,0.9012560844421387,2,
R2422,rimarás,424,word,2,True,3,1.2138822078704834,1,
R2422,ceflía,425,word,1,True,3,0.8439829349517822,2,
R2422,gruñiremos,426,word,2,True,3,1.8962550163269043,1,
R2422,bailará,427,word,2,True,3,0.8559980392456055,1,
R2422,moncía,428,word,1,True,3,1.0128200054168701,2,
R2422,lailará,429,word,1,True,3,0.8371310234069824,2,
R2422,poreré,430,word,1,True,3,0.9601032733917236,2,
R2422,vultarán,431,word,1,True,3,1.0560648441314697,2,
R2422,bailaría,432,word,2,True,3,1.614149808883667,1,
R2422,faltaría,433,word,2,True,3,1.1919031143188477,1,
R2422,cortaría,434,word,2,True,3,1.2058923244476318,1,
R2422,focarían,435,word,1,True,3,1.2259666919708252,2,
R2422,faltábamos,436,word,2,True,3,1.4049649238586426,1,
R2422,meterás,437,word,2,True,3,2.371962785720825,1,
R2422,formaría,438,word,2,True,3,0.8888339996337891,1,
R2422,rimarán,439,word,2,True,3,0.8707020282745361,1,
R2422,runabas,440,word,1,True,3,0.8480298519134521,2,
R2422,burrarás,441,word,1,True,3,0.9039568901062012,2,
R2422,comería,442,word,2,True,3,0.8287630081176758,1,
R2422,someremos,443,word,1,True,3,1.0099472999572754,2,
R2422,focaremos,444,word,1,True,3,1.5418717861175537,2,
R2422,cenarías,445,word,2,True,3,1.0189628601074219,1,
R2422,correremos,446,word,2,True,3,1.4098999500274658,1,
R2422,subiré,447,word,2,True,3,1.3014180660247803,1,
R2422,sumaban,448,word,2,True,3,1.2554068565368652,1,
R2422,subirían,449,word,2,True,3,1.0469708442687988,1,
R2422,vultarías,450,word,1,True,3,0.9298651218414307,2,
R2422,somerías,451,word,2,False,3,1.1459717750549316,2,
R2422,chanrarán,452,word,1,True,3,1.6877219676971436,2,
R2422,obraremos,453,word,1,False,3,0.9201579093933105,1,
R2422,ardíamos,454,word,2,True,3,0.8449699878692627,1,
R2422,tupliría,455,word,1,True,3,0.7927870750427246,2,
R2422,prenderías,456,word,2,True,3,0.8889310359954834,1,
R2422,focarán,457,word,1,True,3,0.8059160709381104,2,
R2422,honderás,458,word,1,True,3,0.8589770793914795,2,
R2422,cisábamos,459,word,1,True,3,0.7239570617675781,2,
R2422,zusaré,460,word,1,True,3,0.8709299564361572,2,
R2422,casaría,461,word,2,True,3,1.2110631465911865,1,
R2422,unirías,462,word,2,True,3,0.9349958896636963,1,
R2422,porería,463,word,1,True,3,1.0389580726623535,2,
R2422,rayaremos,464,word,2,True,3,1.2140190601348877,1,
R2422,anrías,465,word,1,True,3,0.8629419803619385,2,
R2422,pactarán,466,word,2,True,3,0.8880119323730469,1,
R2422,besaba,467,word,2,True,3,0.7228538990020752,1,
R2422,maftaríamos,468,word,1,True,3,0.9789729118347168,2,
R2422,mardiremos,469,word,1,True,4,1.4320650100708008,2,
R2422,pactaré,470,word,2,True,4,0.669835090637207,1,
R2422,formarás,471,word,2,True,4,0.9640069007873535,1,
R2422,cuarrirán,472,word,1,True,4,1.223876953125,2,
R2422,bigaríamos,473,word,1,True,4,1.4010858535766602,2,
R2422,faltaba,474,word,2,True,4,0.6699602603912354,1,
R2422,prenderemos,475,word,2,True,4,1.031933069229126,1,
R2422,tosían,476,word,2,True,4,1.0819449424743652,1,
R2422,tuplirían,477,word,1,True,4,0.8849918842315674,2,
R2422,cisarían,478,word,1,True,4,1.116774082183838,2,
R2422,chanraban,479,word,1,True,4,0.8918168544769287,2,
R2422,rotaremos,480,word,2,True,4,0.7369048595428467,1,
R2422,cubrirán,481,word,2,True,4,0.7218961715698242,1,
R2422,monceríamos,482,word,1,True,4,1.045011043548584,2,
R2422,pavarás,483,word,1,True,4,0.8500092029571533,2,
R2422,narraba,484,word,2,True,4,0.6809959411621094,1,
R2422,obrarán,485,word,2,True,4,1.04091215133667,1,
R2422,casarías,486,word,2,True,4,0.7650032043457031,1,
R2422,rimábamos,487,word,2,True,4,1.034970760345459,1,
R2422,unía,488,word,2,True,4,0.738929033279419,1,
R2422,rotaríamos,489,word,2,True,4,0.9170548915863037,1,
R2422,prenderán,490,word,2,True,4,0.8356280326843262,1,
R2422,riteríamos,491,word,1,True,4,0.9429237842559814,2,
R2422,lorgarían,492,word,1,True,4,2.0150787830352783,2,
R2422,partíamos,493,word,2,True,4,0.8299751281738281,1,
R2422,faltarás,494,word,2,True,4,0.7469298839569092,1,
R2422,rondaría,495,word,2,True,4,1.1291329860687256,1,
R2422,bruvirán,496,word,1,True,4,0.857957124710083,2,
R2422,rimaremos,497,word,2,True,4,1.1799838542938232,1,
R2422,mordería,498,word,2,True,4,1.2699251174926758,1,
R2422,jurará,499,word,2,True,4,0.8090119361877441,1,
R2422,imirá,500,word,1,True,4,1.1642470359802246,2,
R2422,gacharían,501,word,1,True,4,1.213141918182373,2,
R2422,mordía,502,word,2,True,4,0.9011969566345215,1,
R2422,faltarían,503,word,2,True,4,0.9041168689727783,1,
R2422,pactaríamos,504,word,2,True,4,1.0512409210205078,1,
R2422,somíamos,505,word,1,True,4,0.9671430587768555,2,
R2422,uniremos,506,word,2,True,4,0.9631879329681396,1,
R2422,fundiremos,507,word,2,True,4,1.4120640754699707,1,
R2422,quijaríamos,508,word,1,True,4,1.1604669094085693,2,
R2422,faltaremos,509,word,2,True,4,0.9320051670074463,1,
R2422,morderé,510,word,2,True,4,0.938230037689209,1,
R2422,sauarán,511,word,1,True,4,0.8233249187469482,2,
R2422,cipía,512,word,1,True,4,0.7472140789031982,2,
R2422,lamería,513,word,2,True,4,0.9285011291503906,1,
R2422,cisarás,514,word,1,True,4,0.9422228336334229,2,
R2422,ciperían,515,word,1,True,4,0.875115156173706,2,
R2422,bailaré,516,word,2,True,4,0.9351959228515625,1,
R2422,galabas,517,word,1,True,4,0.9455568790435791,2,
R2422,bimaríamos,518,word,1,True,4,0.8980851173400879,2,
R2422,faltarán,519,word,2,True,4,1.2010152339935303,1,
R2422,sesían,520,word,1,True,4,0.8981039524078369,2,
R2422,cumplíamos,521,word,2,True,4,0.9393200874328613,1,
R2422,cenaremos,522,word,2,True,4,0.8790209293365479,1,
R2422,cuarríamos,523,word,1,True,4,0.847283124923706,2,
R2422,lailarás,524,word,1,True,4,0.7890939712524414,2,
R2422,barreré,525,word,2,True,4,0.8930168151855469,1,
R2422,quemabas,526,word,2,True,4,1.533891201019287,1,
R2422,juraremos,527,word,2,True,4,1.0990378856658936,1,
R2422,subiríamos,528,word,2,True,4,0.7361259460449219,1,
R2422,lameríamos,529,word,1,False,4,1.152014970779419,1,
R2422,sauaré,530,word,1,True,4,0.8134100437164307,2,
R2422,sauaríamos,531,word,1,True,4,0.9499797821044922,2,
R2422,runarías,532,word,1,True,4,1.0311837196350098,2,
R2422,lucharíamos,533,word,2,True,4,1.0829708576202393,1,
R2422,chanrarían,534,word,1,True,4,1.354093074798584,2,
R2422,sumarán,535,word,2,True,4,0.7151057720184326,1,
R2422,moncerían,536,word,1,True,4,0.8250131607055664,2,
R2422,moncerías,537,word,1,True,4,0.8160960674285889,2,
R2422,casaré,538,word,2,True,4,0.8460719585418701,1,
R2422,ritía,539,word,1,True,4,1.3498549461364746,2,
R2422,focabas,540,word,1,True,4,0.9740910530090332,2,
R2422,maftaban,541,word,1,True,4,0.7289149761199951,2,
R2422,seserían,542,word,1,True,4,0.8388879299163818,2,
R2422,prendían,543,word,2,True,4,0.7709729671478271,1,
R2422,luchaban,544,word,2,True,4,0.7620968818664551,1,
R2422,lorgarías,545,word,1,True,4,1.3060030937194824,2,
R2422,seserán,546,word,1,True,4,1.003096103668213,2,
R2422,tujiré,547,word,1,True,4,1.362835168838501,2,
R2422,coseré,548,word,2,True,4,0.9908630847930908,1,
R2422,fanerías,549,word,1,True,4,0.7947888374328613,2,
R2422,focábamos,550,word,1,True,4,1.2279789447784424,2,
R2422,lamerán,551,word,1,False,4,0.025164127349853516,1,
R2422,ceterás,552,word,1,True,4,0.8761122226715088,2,
R2422,mardirías,553,word,1,True,4,0.8427708148956299,2,
R2422,quijabas,554,word,1,True,4,0.650001049041748,2,
R2422,mertaría,555,word,1,True,4,0.7218799591064453,2,
R2422,chanrábamos,556,word,1,True,4,0.792011022567749,2,
R2422,morderías,557,word,2,True,4,0.7758922576904297,1,
R2422,cubriremos,558,word,2,True,4,1.0864989757537842,1,
R2422,honderíamos,559,word,1,True,4,0.7418229579925537,2,
R2422,ceteríamos,560,word,1,True,4,0.7099671363830566,2,
R2422,quijarás,561,word,1,True,4,1.3119761943817139,2,
R2422,bruvirías,562,word,1,True,4,0.8021590709686279,2,
R2422,somerá,563,word,1,True,4,1.3977112770080566,2,
R2422,obrarás,564,word,2,True,4,1.5479390621185303,1,
R2422,anreríamos,565,word,1,True,4,1.824002981185913,2,
R2422,cortarían,566,word,2,True,4,0.8391368389129639,1,
R2422,fundirás,567,word,2,True,4,1.9380862712860107,1,
R2422,retábamos,568,word,2,True,4,0.9789519309997559,1,
R2422,lameré,569,word,2,True,4,1.7020628452301025,1,
R2422,besarían,570,word,2,True,4,0.8036470413208008,1,
R2422,chanrarás,571,word,1,True,4,0.9127688407897949,2,
R2422,galarías,572,word,1,True,4,0.9299569129943848,2,
R2422,rayábamos,573,word,2,True,4,1.0671072006225586,1,
R2422,quijaría,574,word,1,True,4,0.8200118541717529,2,
R2422,venderé,575,word,2,True,4,1.1781480312347412,1,
R2422,mardirán,576,word,1,True,4,0.7750570774078369,2,
R2422,cedías,577,word,1,False,4,0.8179199695587158,1,
R2422,barreríamos,578,word,2,True,4,1.1230390071868896,1,
R2422,tujiremos,579,word,1,True,4,0.7440700531005859,2,
R2422,prendía,580,word,2,True,4,0.7015018463134766,1,
R2422,imíamos,581,word,1,True,4,0.9409658908843994,2,
R2422,faltaban,582,word,2,True,4,0.8286588191986084,1,
R2422,cisaríamos,583,word,1,True,4,1.0099170207977295,2,
R2422,porerían,584,word,1,True,4,0.8600399494171143,2,
R2422,ciperá,585,word,1,True,4,0.8969531059265137,2,
R2422,cosía,586,word,2,True,4,0.6689596176147461,1,
R2422,anría,587,word,1,True,4,1.080873966217041,2,
R2422,gruñiría,588,word,1,False,4,1.064986228942871,1,
R2422,sumabas,589,word,2,True,4,0.7999167442321777,1,
R2422,corrías,590,word,2,True,4,0.6769349575042725,1,
R2422,pavaremos,591,word,1,True,4,0.769139289855957,2,
R2422,cichiría,592,word,1,True,4,0.8170008659362793,2,
R2422,ardía,593,word,2,True,4,0.7180111408233643,1,
R2422,rayabas,594,word,2,True,4,0.6749980449676514,1,
R2422,cetaremos,595,word,1,True,4,0.8280670642852783,2,
R2422,sumaré,596,word,2,True,4,0.7569122314453125,1,
R2422,luchabas,597,word,2,True,4,0.7391071319580078,1,
R2422,sindaremos,598,word,1,True,4,1.0768799781799316,2,
R2422,burraríamos,599,word,1,True,4,1.0449841022491455,2,
R2422,prenderé,600,word,2,True,4,0.777069091796875,1,
R2422,vultábamos,601,word,1,True,4,0.8797481060028076,2,
R2422,maftaremos,602,word,2,False,4,1.3680119514465332,2,
R2422,cisaremos,603,word,1,True,4,0.7359800338745117,2,
R2422,anrerían,604,word,1,True,4,0.8321638107299805,2,
R2422,prendíamos,605,word,2,True,4,0.6479768753051758,1,
R2422,mardía,606,word,1,True,4,0.8989429473876953,2,
R2422,jurarán,607,word,2,True,4,1.0038959980010986,1,
R2422,cetarán,608,word,1,True,4,0.7211048603057861,2,
R2422,gacharán,609,word,1,True,4,1.0149719715118408,2,
R2422,eplaría,610,word,1,True,4,0.7090458869934082,2,
R2422,sufriré,611,word,2,True,4,0.8589708805084229,1,
R2422,quijarías,612,word,1,True,4,1.1540930271148682,2,
R2422,tosía,613,word,2,True,4,0.8819928169250488,1,
R2422,gruñirá,614,word,2,True,4,1.7550349235534668,1,
R2422,burrarían,615,word,1,True,4,1.0550673007965088,2,
R2422,jurabas,616,word,2,True,4,0.9719860553741455,1,
R2422,arderías,617,word,2,True,4,1.2218921184539795,1,
R2422,cetaban,618,word,1,True,4,0.7169911861419678,2,
R2422,mardíamos,619,word,1,True,4,1.0720188617706299,2,
R2422,porerás,620,word,1,True,4,1.0649991035461426,2,
R2422,lucharán,621,word,2,True,4,0.8408093452453613,1,
R2422,rimaré,622,word,2,True,4,1.0471172332763672,1,
R2422,honderán,623,word,1,True,4,0.9400990009307861,2,
R2422,juraría,624,word,2,True,4,0.7811470031738281,1,
R2422,tuplíamos,625,word,1,True,5,1.1150860786437988,2,
R2422,comíamos,626,word,2,True,5,0.7649810314178467,1,
R2422,sindaríamos,627,word,1,True,5,0.9211399555206299,2,
R2422,burraré,628,word,1,True,5,0.9639458656311035,2,
R2422,bigarás,629,word,1,True,5,1.3493151664733887,2,
R2422,ardías,630,word,2,True,5,0.8080329895019531,1,
R2422,tuplirá,631,word,1,True,5,1.0228331089019775,2,
R2422,charlaremos,632,word,2,True,5,1.2310516834259033,1,
R2422,cuarrían,633,word,1,True,5,1.0330750942230225,2,
R2422,rimarían,634,word,2,True,5,0.8969368934631348,1,
R2422,besaban,635,word,2,True,5,0.7679610252380371,1,
R2422,mardiré,636,word,1,True,5,0.9910390377044678,2,
R2422,correrás,637,word,2,True,5,0.7691090106964111,1,
R2422,narrarán,638,word,2,True,5,1.6101329326629639,1,
R2422,partirías,639,word,2,True,5,1.6760969161987305,1,
R2422,cenará,640,word,2,True,5,0.9649488925933838,1,
R2422,charlabas,641,word,2,True,5,1.3675100803375244,1,
R2422,cetaría,642,word,1,True,5,1.1901891231536865,2,
R2422,retaba,643,word,2,True,5,1.4220490455627441,1,
R2422,runaremos,644,word,1,True,5,0.8959188461303711,2,
R2422,porerías,645,word,1,True,5,1.2520298957824707,2,
R2422,ceflerás,646,word,1,True,5,0.8510489463806152,2,
R2422,sindaré,647,word,1,True,5,1.488948106765747,2,
R2422,coseremos,648,word,2,True,5,1.0049748420715332,1,
R2422,sufrirá,649,word,2,True,5,0.8348779678344727,1,
R2422,anreré,650,word,1,True,5,0.7481467723846436,2,
R2422,rondaba,651,word,2,True,5,0.7689950466156006,1,
R2422,gruñiré,652,word,2,True,5,1.2665939331054688,1,
R2422,bruvirás,653,word,1,True,5,0.8851330280303955,2,
R2422,besábamos,654,word,2,True,5,0.7299411296844482,1,
R2422,somía,655,word,1,True,5,1.601078987121582,2,
R2422,lucharía,656,word,2,True,5,1.5198700428009033,1,
R2422,lailábamos,657,word,1,True,5,1.0969328880310059,2,
R2422,meteríamos,658,word,2,True,5,1.1138858795166016,1,
R2422,quemará,659,word,2,True,5,1.2390809059143066,1,
R2422,lailaríamos,660,word,1,True,5,1.2962279319763184,2,
R2422,temerás,661,word,2,True,5,0.8598577976226807,1,
R2422,bigaba,662,word,1,True,5,0.9840121269226074,2,
R2422,formaríamos,663,word,2,True,5,0.9268908500671387,1,
R2422,fundías,664,word,2,True,5,1.050102949142456,1,
R2422,faltará,665,word,2,True,5,1.5720319747924805,1,
R2422,fundían,666,word,2,True,5,0.8790080547332764,1,
R2422,tuplía,667,word,1,True,5,0.9748661518096924,2,
R2422,comían,668,word,2,True,5,0.6620159149169922,1,
R2422,coserías,669,word,2,True,5,0.9826538562774658,1,
R2422,imiré,670,word,1,True,5,0.785102128982544,2,
R2422,someríamos,671,word,1,True,5,0.9800360202789307,2,
R2422,runaría,672,word,1,True,5,1.558974266052246,2,
R2422,pactaban,673,word,2,True,5,1.0352251529693604,1,
R2422,arderían,674,word,1,False,5,1.4930858612060547,1,
R2422,comerá,675,word,2,True,5,0.6158750057220459,1,
R2422,cetería,676,word,1,True,5,0.737037181854248,2,
R2422,rotarían,677,word,2,True,5,1.1561391353607178,1,
R2422,luntíamos,678,word,1,True,5,1.002143144607544,2,
R2422,partirá,679,word,2,True,5,1.1650378704071045,1,
R2422,bimarías,680,word,1,True,5,0.7129549980163574,2,
R2422,sindabas,681,word,1,True,5,0.9871232509613037,2,
R2422,cuarrías,682,word,1,True,5,1.4120640754699707,2,
R2422,bruviríamos,683,word,1,True,5,0.7901120185852051,2,
R2422,ardería,684,word,2,True,5,1.1909079551696777,1,
R2422,bailabas,685,word,2,True,5,0.8499398231506348,1,
R2422,fundiríamos,686,word,2,True,5,1.1818759441375732,1,
R2422,bigará,687,word,1,True,5,0.89792799949646,2,
R2422,imiría,688,word,1,True,5,1.5300710201263428,2,
R2422,hondías,689,word,1,True,5,0.8329360485076904,2,
R2422,frindería,690,word,1,True,5,2.0390491485595703,2,
R2422,maftarían,691,word,1,True,5,0.7308971881866455,2,
R2422,runarás,692,word,1,True,5,1.0331060886383057,2,
R2422,partía,693,word,2,True,5,0.7830610275268555,1,
R2422,bruvían,694,word,1,True,5,0.6798100471496582,2,
R2422,cederemos,695,word,2,True,5,1.0319502353668213,1,
R2422,obraría,696,word,2,True,5,0.9150259494781494,1,
R2422,cenaríamos,697,word,2,True,5,0.8350520133972168,1,
R2422,lacheré,698,word,1,True,5,0.884918212890625,2,
R2422,sumará,699,word,2,True,5,1.2149908542633057,1,
R2422,bruvía,700,word,1,True,5,0.8619890213012695,2,
R2422,bigaremos,701,word,1,True,5,1.1389799118041992,2,
R2422,barríamos,702,word,2,True,5,0.914952278137207,1,
R2422,fanería,703,word,1,True,5,0.7900300025939941,2,
R2422,lucharemos,704,word,2,True,5,0.9930391311645508,1,
R2422,zusaba,705,word,1,True,5,0.7302989959716797,2,
R2422,quemaremos,706,word,2,True,5,1.6940851211547852,1,
R2422,cetías,707,word,1,True,5,0.9456288814544678,2,
R2422,rondarás,708,word,2,True,5,1.634871006011963,1,
R2422,sindaría,709,word,1,True,5,1.7479331493377686,2,
R2422,cumplirán,710,word,2,True,5,0.9020919799804688,1,
R2422,lamías,711,word,1,False,5,0.8486261367797852,1,
R2422,rondabas,712,word,2,True,5,0.9029371738433838,1,
R2422,fanerán,713,word,1,True,5,0.8247580528259277,2,
R2422,sumaríamos,714,word,2,True,5,1.1338841915130615,1,
R2422,charlarían,715,word,2,True,5,2.9193012714385986,1,
R2422,gruñían,716,word,2,True,5,1.0348429679870605,1,
R2422,eplarán,717,word,1,True,5,0.7229089736938477,2,
R2422,cetarás,718,word,1,True,5,1.173997163772583,2,
R2422,seserías,719,word,1,True,5,1.16497802734375,2,
R2422,seseremos,720,word,1,True,5,1.330867052078247,2,
R2422,retarás,721,word,2,True,5,0.8890769481658936,1,
R2422,cuarrirían,722,word,1,True,5,1.8907899856567383,2,
R2422,casaremos,723,word,2,True,5,0.9540419578552246,1,
R2422,tujiría,724,word,1,True,5,0.7758419513702393,2,
R2422,seseré,725,word,1,True,5,0.8376410007476807,2,
R2422,eplará,726,word,1,True,5,0.6850731372833252,2,
R2422,maftaría,727,word,1,True,5,0.8608760833740234,2,
R2422,lamerás,728,word,2,True,5,0.8470139503479004,1,
R2422,metía,729,word,2,True,5,0.7125849723815918,1,
R2422,temerían,730,word,2,True,5,0.9510247707366943,1,
R2422,sumábamos,731,word,2,True,5,1.205085039138794,1,
R2422,unían,732,word,2,True,5,0.7510509490966797,1,
R2422,obraban,733,word,2,True,5,0.6730988025665283,1,
R2422,uniré,734,word,2,True,5,0.8980958461761475,1,
R2422,ceflías,735,word,1,True,5,1.2055091857910156,2,
R2422,gacharás,736,word,1,True,5,0.7779190540313721,2,
R2422,partirían,737,word,2,True,5,1.1209032535552979,1,
R2422,meterá,738,word,2,True,5,0.7200658321380615,1,
R2422,venderías,739,word,1,False,5,1.1848840713500977,1,
R2422,ceterán,740,word,1,True,5,0.8219871520996094,2,
R2422,coserán,741,word,2,True,5,0.7639648914337158,1,
R2422,lorgabas,742,word,1,True,5,0.9717330932617188,2,
R2422,tupliremos,743,word,1,True,5,0.8109090328216553,2,
R2422,sufríamos,744,word,2,True,5,1.1189911365509033,1,
R2422,lacheremos,745,word,1,True,5,0.848052978515625,2,
R2422,rimarías,746,word,2,True,5,1.17692232131958,1,
R2422,cubrías,747,word,2,True,5,0.7950379848480225,1,
R2422,nadaré,748,word,2,True,5,0.9567859172821045,1,
R2422,sauábamos,749,word,1,True,5,0.7776250839233398,2,
R2422,tupliré,750,word,1,True,5,0.8239572048187256,2,
R2422,rotábamos,751,word,2,True,5,1.104875087738037,1,
R2422,metías,752,word,2,True,5,0.8779261112213135,1,
R2422,somerás,753,word,1,True,5,1.0210108757019043,2,
R2422,unirían,754,word,2,True,5,0.9218118190765381,1,
R2422,cefleremos,755,word,1,True,5,0.7931351661682129,2,
R2422,imiríamos,756,word,1,True,5,1.378119707107544,2,
R2422,cisarías,757,word,1,True,5,1.3430230617523193,2,
R2422,gruñías,758,word,1,False,5,0.3248293399810791,1,
R2422,cubriré,759,word,2,True,5,0.653311014175415,1,
R2422,luntía,760,word,1,True,5,0.6880300045013428,2,
R2422,cumplirías,761,word,2,True,5,0.8489811420440674,1,
R2422,cederían,762,word,2,True,5,0.771028995513916,1,
R2422,ciperemos,763,word,1,True,5,0.7241330146789551,2,
R2422,pactábamos,764,word,2,True,5,0.7950758934020996,1,
R2422,cedían,765,word,2,True,5,1.158966064453125,1,
R2422,tujían,766,word,1,True,5,0.7821857929229736,2,
R2422,toserían,767,word,2,True,5,0.9150791168212891,1,
R2422,rotarán,768,word,2,True,5,0.9130210876464844,1,
R2422,cetían,769,word,1,True,5,0.8574609756469727,2,
R2422,ceflería,770,word,1,True,5,0.9925551414489746,2,
R2422,tujirán,771,word,1,True,5,0.768010139465332,2,
R2422,lucharás,772,word,1,False,5,0.6810910701751709,1,
R2422,besaría,773,word,2,True,5,0.71085524559021,1,
R2422,formaré,774,word,2,True,5,0.7668309211730957,1,
R2422,narrarías,775,word,2,True,5,1.2949979305267334,1,
R2422,cederé,776,word,2,True,5,2.090064764022827,1,
R2422,tuplían,777,word,1,True,5,0.7811288833618164,2,
R2422,focaría,778,word,1,True,5,0.8761911392211914,2,
R2422,cortarán,779,word,2,True,5,1.2826499938964844,1,
R2422,pavaría,780,word,1,True,5,1.768568754196167,2,
R2422,sindarán,781,word,1,True,6,1.0139751434326172,2,
R2422,tujirían,782,word,1,True,6,0.8460161685943604,2,
R2422,focaré,783,word,1,True,6,0.942065954208374,2,
R2422,moncerá,784,word,1,True,6,0.7407639026641846,2,
R2422,frinderás,785,word,1,True,6,0.8629612922668457,2,
R2422,barría,786,word,2,True,6,0.9291489124298096,1,
R2422,riterás,787,word,1,True,6,0.7889049053192139,2,
R2422,bigarán,788,word,1,True,6,0.9400248527526855,2,
R2422,formabas,789,word,2,True,6,0.7812068462371826,1,
R2422,rondaré,790,word,2,True,6,1.0507609844207764,1,
R2422,arderemos,791,word,2,True,6,1.1607811450958252,1,
R2422,frinderían,792,word,1,True,6,0.7560839653015137,2,
R2422,runábamos,793,word,1,True,6,0.9542839527130127,2,
R2422,bigaría,794,word,1,True,6,0.9429199695587158,2,
R2422,honderían,795,word,1,True,6,0.9081239700317383,2,
R2422,galarían,796,word,1,True,6,1.971971035003662,2,
R2422,cetarías,797,word,1,True,6,1.0270421504974365,2,
R2422,ritían,798,word,1,True,6,0.8168849945068359,2,
R2422,luntían,799,word,1,True,6,0.7209389209747314,2,
R2422,gruñirás,800,word,2,True,6,1.0070610046386719,1,
R2422,venderíamos,801,word,2,True,6,0.9230420589447021,1,
R2422,cumpliremos,802,word,2,True,6,0.8699440956115723,1,
R2422,cisarán,803,word,1,True,6,1.3450920581817627,2,
R2422,jurarías,804,word,2,True,6,1.102118968963623,1,
R2422,prenderíamos,805,word,2,True,6,1.2030680179595947,1,
R2422,formábamos,806,word,2,True,6,0.8846580982208252,1,
R2422,barrerías,807,word,2,True,6,0.7972517013549805,1,
R2422,ceflerías,808,word,1,True,6,0.711014986038208,2,
R2422,eplarían,809,word,1,True,6,0.764136791229248,2,
R2422,ceterías,810,word,1,True,6,0.9431107044219971,2,
R2422,bailaban,811,word,2,True,6,0.7660129070281982,1,
R2422,cubrían,812,word,2,True,6,1.1950650215148926,1,
R2422,lachían,813,word,1,True,6,0.7370378971099854,2,
R2422,cenaría,814,word,2,True,6,0.7969181537628174,1,
R2422,bigarían,815,word,1,True,6,0.9908692836761475,2,
R2422,coserá,816,word,2,True,6,0.7000508308410645,1,
R2422,ciperíamos,817,word,1,True,6,0.923882007598877,2,
R2422,arderás,818,word,2,True,6,0.8720331192016602,1,
R2422,lailarán,819,word,1,True,6,0.7319247722625732,2,
R2422,somería,820,word,1,True,6,0.9218380451202393,2,
R2422,imía,821,word,1,True,6,0.9539170265197754,2,
R2422,bimaré,822,word,1,True,6,0.7500410079956055,2,
R2422,quemarán,823,word,2,True,6,0.9299869537353516,1,
R2422,obrará,824,word,2,True,6,0.935168981552124,1,
R2422,retaríamos,825,word,2,True,6,1.0990149974822998,1,
R2422,charlaría,826,word,2,True,6,1.0889947414398193,1,
R2422,gruñirán,827,word,2,True,6,1.4760689735412598,1,
R2422,mertabas,828,word,1,True,6,0.9309170246124268,2,
R2422,cubrirá,829,word,2,True,6,1.200080156326294,1,
R2422,riterías,830,word,1,True,6,0.8379578590393066,2,
R2422,rotaba,831,word,2,True,6,0.9459750652313232,1,
R2422,formarían,832,word,2,True,6,0.9458560943603516,1,
R2422,bailaríamos,833,word,2,True,6,0.9770870208740234,1,
R2422,correré,834,word,2,True,6,0.7359647750854492,1,
R2422,runarán,835,word,1,True,6,0.9318699836730957,2,
R2422,rayará,836,word,2,True,6,1.4779231548309326,1,
R2422,toserías,837,word,2,True,6,0.8749339580535889,1,
R2422,cipería,838,word,1,True,6,0.8920068740844727,2,
R2422,poreríamos,839,word,1,True,6,1.6860790252685547,2,
R2422,besará,840,word,2,True,6,0.7449448108673096,1,
R2422,cuarriré,841,word,1,True,6,0.9499509334564209,2,
R2422,mardían,842,word,1,True,6,1.0238938331604004,2,
R2422,cubrirías,843,word,2,True,6,0.9349789619445801,1,
R2422,frindíamos,844,word,1,True,6,0.8209559917449951,2,
R2422,juraban,845,word,2,True,6,1.446303129196167,1,
R2422,casará,846,word,2,True,6,0.7480199337005615,1,
R2422,bimaba,847,word,1,True,6,0.6760449409484863,2,
R2422,cuarrirá,848,word,1,True,6,1.0771739482879639,2,
R2422,frindías,849,word,1,True,6,0.7792110443115234,2,
R2422,comeríamos,850,word,2,True,6,0.7430500984191895,1,
R2422,arderá,851,word,2,True,6,1.0011279582977295,1,
R2422,luntirían,852,word,1,True,6,0.7560629844665527,2,
R2422,fundíamos,853,word,2,True,6,0.9088928699493408,1,
R2422,cefleríamos,854,word,1,True,6,0.855133056640625,2,
R2422,correrán,855,word,2,True,6,0.7471270561218262,1,
R2422,pavaban,856,word,1,True,6,1.1330671310424805,2,
R2422,lamía,857,word,2,True,6,0.9929077625274658,1,
R2422,arderé,858,word,2,True,6,1.353095293045044,1,
R2422,lorgarás,859,word,1,True,6,1.0948522090911865,2,
R2422,burrarán,860,word,1,True,6,1.129884958267212,2,
R2422,vultaban,861,word,1,True,6,0.863898754119873,2,
R2422,charlaré,862,word,2,True,6,1.400022029876709,1,
R2422,frinderán,863,word,1,True,6,0.7640187740325928,2,
R2422,correría,864,word,2,True,6,0.6450598239898682,1,
R2422,fundirá,865,word,2,True,6,1.7240509986877441,1,
R2422,lorgaba,866,word,1,True,6,0.8299667835235596,2,
R2422,rayarías,867,word,2,True,6,0.9509377479553223,1,
R2422,cetabas,868,word,1,True,6,0.7249090671539307,2,
R2422,cedía,869,word,2,True,6,0.7080378532409668,1,
R2422,obrábamos,870,word,2,True,6,1.1099319458007812,1,
R2422,formarías,871,word,2,True,6,0.9660511016845703,1,
R2422,bruviremos,872,word,1,True,6,0.6648402214050293,2,
R2422,luntiría,873,word,1,True,6,0.8190212249755859,2,
R2422,coseríamos,874,word,2,True,6,0.7780802249908447,1,
R2422,uníamos,875,word,2,True,6,0.6943569183349609,1,
R2422,lailaré,876,word,1,True,6,0.716973066329956,2,
R2422,bruvíamos,877,word,1,True,6,0.7379581928253174,2,
R2422,faníamos,878,word,1,True,6,0.7879519462585449,2,
R2422,comerías,879,word,2,True,6,0.7250018119812012,1,
R2422,subirá,880,word,2,True,6,0.877413272857666,1,
R2422,cisaré,881,word,1,True,6,1.2853901386260986,2,
R2422,morderás,882,word,2,True,6,0.6881179809570312,1,
R2422,mertarías,883,word,1,True,6,1.149096965789795,2,
R2422,meteremos,884,word,2,True,6,0.7119901180267334,1,
R2422,galaremos,885,word,1,True,6,1.046778917312622,2,
R2422,cichirá,886,word,1,True,6,0.7761068344116211,2,
R2422,pactaba,887,word,2,True,6,0.7944269180297852,1,
R2422,comías,888,word,2,True,6,0.6149108409881592,1,
R2422,barrerán,889,word,2,True,6,0.9349188804626465,1,
R2422,honderá,890,word,1,True,6,0.7899880409240723,2,
R2422,rayaría,891,word,2,True,6,0.7230241298675537,1,
R2422,lorgaremos,892,word,1,True,6,1.0140700340270996,2,
R2422,zusarías,893,word,1,True,6,1.3709650039672852,2,
R2422,subiría,894,word,2,True,6,1.030972957611084,1,
R2422,rotaría,895,word,2,True,6,1.0329830646514893,1,
R2422,subías,896,word,2,True,6,0.6770906448364258,1,
R2422,toserás,897,word,2,True,6,0.8049399852752686,1,
R2422,cetaré,898,word,1,True,6,0.9759166240692139,2,
R2422,imirán,899,word,1,True,6,1.0829339027404785,2,
R2422,maftaré,900,word,1,True,6,0.7778010368347168,2,
R2422,bigaban,901,word,1,True,6,0.7440183162689209,2,
R2422,faneré,902,word,1,True,6,0.7720589637756348,2,
R2422,vultaremos,903,word,1,True,6,0.8688812255859375,2,
R2422,cenarás,904,word,2,True,6,0.8061010837554932,1,
R2422,vultaría,905,word,1,True,6,0.7299971580505371,2,
R2422,charlaban,906,word,2,True,6,0.9259400367736816,1,
R2422,mordíamos,907,word,2,True,6,0.779188871383667,1,
R2422,temían,908,word,2,True,6,0.9538938999176025,1,
R2422,rayarán,909,word,2,True,6,0.801854133605957,1,
R2422,unirás,910,word,2,True,6,0.7841968536376953,1,
R2422,frindía,911,word,1,True,6,1.0829291343688965,2,
R2422,formará,912,word,2,True,6,0.7490220069885254,1,
R2422,cenarán,913,word,2,True,6,0.8095738887786865,1,
R2422,sauará,914,word,1,True,6,0.7003438472747803,2,
R2422,rimaría,915,word,1,False,6,0.9839072227478027,1,
R2422,rotarás,916,word,2,True,6,0.7131199836730957,1,
R2422,subían,917,word,2,True,6,0.6280090808868408,1,
R2422,runaban,918,word,1,True,6,0.8628199100494385,2,
R2422,cenaban,919,word,2,True,6,1.126993179321289,1,
R2422,mertaban,920,word,1,True,6,0.7771868705749512,2,
R2422,rotabas,921,word,2,True,6,0.8930559158325195,1,
R2422,retarán,922,word,2,True,6,0.9800119400024414,1,
R2422,vultarás,923,word,1,True,6,0.8019790649414062,2,
R2422,prenderían,924,word,2,True,6,0.9900920391082764,1,
R2422,mertará,925,word,1,True,6,1.0540261268615723,2,
R2422,lamerías,926,word,2,True,6,1.0810861587524414,1,
R2422,mertaríamos,927,word,1,True,6,0.8360679149627686,2,
R2422,galaban,928,word,1,True,6,0.8780169486999512,2,
R2422,moncería,929,word,1,True,6,1.1228208541870117,2,
R2422,nadarás,930,word,2,True,6,0.7913498878479004,1,
R2422,partiríamos,931,word,2,True,6,0.9950721263885498,1,
R2422,ceflíamos,932,word,1,True,6,0.8469412326812744,2,
R2422,pavábamos,933,word,1,True,6,0.9460170269012451,2,
R2422,morderíamos,934,word,2,True,6,0.9351952075958252,1,
R2422,cortaríamos,935,word,2,True,6,1.3759372234344482,1,
R2422,sufrirán,936,word,2,True,6,0.8860101699829102,1,
R2422,comerían,937,word,2,True,7,1.095062017440796,1,
R2422,cipíamos,938,word,1,True,7,0.6748108863830566,2,
R2422,bimaban,939,word,1,True,7,0.7060871124267578,2,
R2422,morderemos,940,word,2,True,7,0.8659820556640625,1,
R2422,porerán,941,word,1,True,7,0.8108658790588379,2,
R2422,subirán,942,word,2,True,7,0.6700539588928223,1,
R2422,bruvirá,943,word,1,True,7,0.6859221458435059,2,
R2422,cuarriríamos,944,word,1,True,7,1.0820229053497314,2,
R2422,bimábamos,945,word,1,True,7,0.8241262435913086,2,
R2422,bigaré,946,word,1,True,7,0.6793208122253418,2,
R2422,focarás,947,word,1,True,7,0.7950859069824219,2,
R2422,cichirás,948,word,1,True,7,0.7850141525268555,2,
R2422,rondarán,949,word,2,True,7,0.9368953704833984,1,
R2422,lorgábamos,950,word,1,True,7,1.0969479084014893,2,
R2422,cipían,951,word,1,True,7,0.7130341529846191,2,
R2422,maftábamos,952,word,1,True,7,0.8167848587036133,2,
R2422,lachíamos,953,word,1,True,7,0.6619217395782471,2,
R2422,lacherás,954,word,1,True,7,1.4801499843597412,2,
R2422,retarías,955,word,2,True,7,0.8450109958648682,1,
R2422,jurábamos,956,word,2,True,7,0.8987908363342285,1,
R2422,casaban,957,word,2,True,7,1.4580450057983398,1,
R2422,retaremos,958,word,2,True,7,1.4670240879058838,1,
R2422,chanraré,959,word,1,True,7,1.4830431938171387,2,
R2422,quemaba,960,word,2,True,7,0.7869381904602051,1,
R2422,ceterían,961,word,1,True,7,1.053901195526123,2,
R2422,jurarás,962,word,2,True,7,0.7359981536865234,1,
R2422,quemábamos,963,word,2,True,7,1.059945821762085,1,
R2422,pactarás,964,word,2,True,7,0.8830111026763916,1,
R2422,pactarías,965,word,2,True,7,1.0359227657318115,1,
R2422,comía,966,word,2,True,7,0.739163875579834,1,
R2422,ceteré,967,word,1,True,7,0.8329610824584961,2,
R2422,cosías,968,word,2,True,7,0.8251509666442871,1,
R2422,zusarían,969,word,1,True,7,1.3090670108795166,2,
R2422,cederíamos,970,word,2,True,7,1.4190289974212646,1,
R2422,comeremos,971,word,2,True,7,0.8139970302581787,1,
R2422,riterá,972,word,1,True,7,0.7828958034515381,2,
R2422,zusaría,973,word,1,True,7,1.0719189643859863,2,
R2422,seserás,974,word,1,True,7,0.8670041561126709,2,
R2422,sesería,975,word,1,True,7,1.202340841293335,2,
R2422,temeré,976,word,2,True,7,0.7637109756469727,1,
R2422,cedería,977,word,2,True,7,1.0308847427368164,1,
R2422,frindían,978,word,1,True,7,0.8070950508117676,2,
R2422,morderían,979,word,2,True,7,0.812108039855957,1,
R2422,vultabas,980,word,1,True,7,0.7428276538848877,2,
R2422,toseré,981,word,2,True,7,1.105069875717163,1,
R2422,gachaba,982,word,1,True,7,0.7951133251190186,2,
R2422,mertarás,983,word,1,True,7,0.9030210971832275,2,
R2422,galaba,984,word,1,True,7,0.7429556846618652,2,
R2422,toseríamos,985,word,2,True,7,1.1189968585968018,1,
R2422,sauarían,986,word,1,True,7,1.045712947845459,2,
R2422,anrían,987,word,1,True,7,1.5530049800872803,2,
R2422,nadaremos,988,word,2,True,7,0.7438411712646484,1,
R2422,gruñirían,989,word,2,True,7,1.346994161605835,1,
R2422,galarán,990,word,1,True,7,0.9150726795196533,2,
R2422,cefleré,991,word,1,True,7,0.6771240234375,2,
R2422,faneríamos,992,word,1,True,7,0.8668851852416992,2,
R2422,narrará,993,word,2,True,7,1.3299579620361328,1,
R2422,partirán,994,word,2,True,7,0.9959919452667236,1,
R2422,riterían,995,word,1,True,7,0.8911280632019043,2,
R2422,bimará,996,word,1,True,7,0.7309567928314209,2,
R2422,cortaremos,997,word,2,True,7,0.7960646152496338,1,
R2422,cichirán,998,word,1,True,7,1.3297109603881836,2,
R2422,pavarán,999,word,1,True,7,1.0070571899414062,2,
R2422,ciperás,1000,word,1,True,7,0.7770853042602539,2,
R2422,cubrirían,1001,word,2,True,7,0.8178319931030273,1,
R2422,temeremos,1002,word,2,True,7,1.001096248626709,1,
R2422,lailabas,1003,word,1,True,7,0.771996021270752,2,
R2422,charlarás,1004,word,2,True,7,2.1029727458953857,1,
R2422,subirás,1005,word,2,True,7,0.7320349216461182,1,
R2422,somías,1006,word,1,True,7,0.8389871120452881,2,
R2422,vultaba,1007,word,1,True,7,0.8360917568206787,2,
R2422,mertarían,1008,word,1,True,7,1.0440740585327148,2,
R2422,prenderás,1009,word,2,True,7,2.5340607166290283,1,
R2422,casaba,1010,word,2,True,7,0.6921100616455078,1,
R2422,prenderá,1011,word,2,True,7,0.7479400634765625,1,
R2422,cetábamos,1012,word,1,True,7,0.7630269527435303,2,
R2422,runaríamos,1013,word,1,True,7,0.9449079036712646,2,
R2422,bigábamos,1014,word,1,True,7,0.9781191349029541,2,
R2422,luntirá,1015,word,1,True,7,0.7590899467468262,2,
R2422,quemaban,1016,word,2,True,7,0.8520970344543457,1,
R2422,zusarás,1017,word,1,True,7,0.800961971282959,2,
R2422,sindarían,1018,word,1,True,7,0.827049970626831,2,
R2422,eplaré,1019,word,1,True,7,0.6879973411560059,2,
R2422,correrían,1020,word,2,True,7,0.8108131885528564,1,
R2422,rondábamos,1021,word,2,True,7,1.053016185760498,1,
R2422,vultaríamos,1022,word,1,True,7,0.8209471702575684,2,
R2422,cetía,1023,word,1,True,7,0.788956880569458,2,
R2422,luntiremos,1024,word,1,True,7,0.7469649314880371,2,
R2422,lamerá,1025,word,1,False,7,0.8590548038482666,1,
R2422,narrábamos,1026,word,2,True,7,1.7248868942260742,1,
R2422,charlaba,1027,word,2,True,7,0.9220199584960938,1,
R2422,ritíamos,1028,word,1,True,7,0.8833439350128174,2,
R2422,nadábamos,1029,word,2,True,7,0.8689103126525879,1,
R2422,eplaríamos,1030,word,1,True,7,0.8622071743011475,2,
R2422,cederá,1031,word,2,True,7,0.7871339321136475,1,
R2422,lailarías,1032,word,1,True,7,0.825037956237793,2,
R2422,narrarás,1033,word,2,True,7,1.356076955795288,1,
R2422,ciperías,1034,word,1,True,7,0.7090697288513184,2,
R2422,imías,1035,word,1,True,7,0.7540700435638428,2,
R2422,bailaremos,1036,word,2,True,7,1.3029899597167969,1,
R2422,temías,1037,word,2,True,7,0.7732248306274414,1,
R2422,burrará,1038,word,1,True,7,0.8309321403503418,2,
R2422,pavarías,1039,word,1,True,7,0.8288898468017578,2,
R2422,cederás,1040,word,2,True,7,1.5250060558319092,1,
R2422,cisabas,1041,word,1,True,7,0.9049768447875977,2,
R2422,subíamos,1042,word,2,True,7,0.9100379943847656,1,
R2422,sauaban,1043,word,1,True,7,0.8140497207641602,2,
R2422,narraré,1044,word,2,True,7,1.7470598220825195,1,
R2422,sindarás,1045,word,1,True,7,1.1920483112335205,2,
R2422,temeríamos,1046,word,2,True,7,0.9748947620391846,1,
R2422,bruvirían,1047,word,1,True,7,0.7480037212371826,2,
R2422,besarías,1048,word,2,True,7,0.9573688507080078,1,
R2422,cenaba,1049,word,2,True,7,0.9169549942016602,1,
R2422,cenabas,1050,word,2,True,7,1.1082680225372314,1,
R2422,burrabas,1051,word,1,True,7,0.7951450347900391,2,
R2422,rondaban,1052,word,2,True,7,0.8809878826141357,1,
R2422,quemarás,1053,word,2,True,7,1.2268311977386475,1,
R2422,sufrirían,1054,word,2,True,7,1.0490639209747314,1,
R2422,cisará,1055,word,1,True,7,0.8399219512939453,2,
R2422,lacherían,1056,word,1,True,7,1.717008113861084,2,
R2422,casaríamos,1057,word,2,True,7,1.0560166835784912,1,
R2422,hondían,1058,word,1,True,7,0.7759189605712891,2,
R2422,moncíamos,1059,word,1,True,7,0.8058896064758301,2,
R2422,burraba,1060,word,1,True,7,0.7750940322875977,2,
R2422,quijaremos,1061,word,1,True,7,0.9458961486816406,2,
R2422,mertaré,1062,word,1,True,7,0.8741209506988525,2,
R2422,pavaré,1063,word,1,True,7,0.6750588417053223,2,
R2422,lachías,1064,word,1,True,7,0.713001012802124,2,
R2422,bailábamos,1065,word,2,True,7,1.0709290504455566,1,
R2422,cichirías,1066,word,1,True,7,0.7530229091644287,2,
R2422,sumarían,1067,word,2,True,7,0.7519450187683105,1,
R2422,ritería,1068,word,1,True,7,1.3890259265899658,2,
R2422,lamerían,1069,word,2,True,7,1.0374820232391357,1,
R2422,lailarían,1070,word,1,True,7,0.8660340309143066,2,
R2422,casarás,1071,word,2,True,7,1.0100560188293457,1,
R2422,faltaríamos,1072,word,2,True,7,0.9860439300537109,1,
R2422,gruñirías,1073,word,2,True,7,0.8570072650909424,1,
R2422,ceteremos,1074,word,1,True,7,0.9164290428161621,2,
R2422,imían,1075,word,1,True,7,0.7280447483062744,2,
R2422,cetará,1076,word,1,True,7,0.7970352172851562,2,
R2422,lameremos,1077,word,2,True,7,0.9778709411621094,1,
R2422,rondarían,1078,word,2,True,7,1.0149707794189453,1,
R2422,mardirían,1079,word,1,True,7,0.8957920074462891,2,
R2422,cosían,1080,word,2,True,7,0.6870279312133789,1,
R2422,coserían,1081,word,2,True,7,0.7890057563781738,1,
R2422,retaban,1082,word,2,True,7,0.7859828472137451,1,
R2422,luntirás,1083,word,1,True,7,0.687809944152832,2,
R2422,anreremos,1084,word,1,True,7,1.215677261352539,2,
R2422,zusábamos,1085,word,1,True,7,1.7299699783325195,2,
R2422,imirás,1086,word,1,True,7,0.9584300518035889,2,
R2422,maftarás,1087,word,1,True,7,0.71309494972229,2,
R2422,casabas,1088,word,2,True,7,2.3270840644836426,1,
R2422,cuarriremos,1089,word,1,True,7,1.5990872383117676,2,
R2422,sufrirás,1090,word,2,True,7,2.1460821628570557,1,
R2422,casarán,1091,word,2,True,7,1.0320992469787598,1,
R2422,nadaríamos,1092,word,2,True,7,1.8005681037902832,1,
