participant,stimuli,trialNum,target_type,response,correct,block,reaction_time,trigger,
R2426,sumarán,1,word,2,True,1,1.4630351066589355,1,
R2426,galaba,2,word,1,True,1,1.2059810161590576,2,
R2426,anrerán,3,word,1,True,1,1.4711170196533203,2,
R2426,nadaríamos,4,word,2,True,1,1.1520898342132568,1,
R2426,sumarías,5,word,2,True,1,1.3949248790740967,1,
R2426,fanían,6,word,1,True,1,1.264976978302002,2,
R2426,besarás,7,word,2,True,1,1.035876989364624,1,
R2426,gruñía,8,word,2,True,1,1.0260429382324219,1,
R2426,obrarías,9,word,1,False,1,1.4520220756530762,1,
R2426,quemará,10,word,2,True,1,1.2730228900909424,1,
R2426,lachía,11,word,1,True,1,1.5468862056732178,2,
R2426,tupliremos,12,word,1,True,1,1.5079171657562256,2,
R2426,ciperían,13,word,1,True,1,1.5379002094268799,2,
R2426,quijarías,14,word,2,False,1,1.3070390224456787,2,
R2426,fundiré,15,word,2,True,1,1.5049808025360107,1,
R2426,formaban,16,word,2,True,1,1.2610859870910645,1,
R2426,cosíamos,17,word,2,True,1,1.719041109085083,1,
R2426,sufrían,18,word,2,True,1,1.310028076171875,1,
R2426,cisarán,19,word,2,False,1,1.7504141330718994,2,
R2426,corrían,20,word,2,True,1,0.9740231037139893,1,
R2426,sufrirás,21,word,2,True,1,1.930142879486084,1,
R2426,rotará,22,word,2,True,1,1.2749567031860352,1,
R2426,moncerás,23,word,2,False,1,1.60105299949646,2,
R2426,sindaba,24,word,1,True,1,2.088109016418457,2,
R2426,anríamos,25,word,1,True,1,1.3430521488189697,2,
R2426,nadaré,26,word,2,True,1,0.9568779468536377,1,
R2426,sauábamos,27,word,1,True,1,2.0431127548217773,2,
R2426,faníamos,28,word,1,True,1,2.3398921489715576,2,
R2426,vultaba,29,word,1,True,1,2.2919678688049316,2,
R2426,casaría,30,word,2,True,1,2.287858009338379,1,
R2426,hondería,31,word,2,False,1,1.3860142230987549,2,
R2426,chanrarías,32,word,1,True,1,1.663874864578247,2,
R2426,coserían,33,word,1,False,1,1.383951187133789,1,
R2426,mertábamos,34,word,1,True,1,2.3640389442443848,2,
R2426,sufriría,35,word,2,True,1,0.9199302196502686,1,
R2426,luntirían,36,word,1,True,1,1.3399970531463623,2,
R2426,anrían,37,word,1,True,1,1.9384701251983643,2,
R2426,tujía,38,word,1,True,1,1.7780439853668213,2,
R2426,honderían,39,word,1,True,1,1.8531038761138916,2,
R2426,seserían,40,word,1,True,1,2.1992900371551514,2,
R2426,lorgábamos,41,word,2,False,1,1.635049819946289,2,
R2426,cisará,42,word,1,True,1,2.7410850524902344,2,
R2426,tujirían,43,word,1,True,1,2.206940174102783,2,
R2426,tuplías,44,word,1,True,1,3.034827947616577,2,
R2426,quemarás,45,word,2,True,1,1.4510760307312012,1,
R2426,sesías,46,word,1,True,1,1.7390179634094238,2,
R2426,quemaré,47,word,2,True,1,0.9388957023620605,1,
R2426,obraré,48,word,2,True,1,1.8601231575012207,1,
R2426,ceflías,49,word,1,True,1,1.7259337902069092,2,
R2426,cumplirías,50,word,2,True,1,1.0409469604492188,1,
R2426,comerán,51,word,2,True,1,0.9409008026123047,1,
R2426,pavaremos,52,word,1,True,1,1.5739550590515137,2,
R2426,partiríamos,53,word,2,True,1,1.7689180374145508,1,
R2426,runaremos,54,word,1,True,1,2.0136451721191406,2,
R2426,comían,55,word,2,True,1,0.9370498657226562,1,
R2426,rondarán,56,word,1,False,1,1.6133508682250977,1,
R2426,jurará,57,word,2,True,1,1.3928840160369873,1,
R2426,honderé,58,word,2,False,1,1.9430601596832275,2,
R2426,prenderá,59,word,2,True,1,0.8960261344909668,1,
R2426,poría,60,word,1,True,1,1.3710269927978516,2,
R2426,venderías,61,word,2,True,1,2.643017053604126,1,
R2426,burrábamos,62,word,1,True,1,1.6149060726165771,2,
R2426,runaríamos,63,word,1,True,1,1.2918663024902344,2,
R2426,partía,64,word,2,True,1,3.1437790393829346,1,
R2426,subiríamos,65,word,2,True,1,2.188908100128174,1,
R2426,runarán,66,word,2,False,1,2.315920829772949,2,
R2426,cetaba,67,word,1,True,1,1.9710400104522705,2,
R2426,riterían,68,word,2,False,1,1.6861069202423096,2,
R2426,besaba,69,word,2,True,1,0.8619720935821533,1,
R2426,cuarrían,70,word,1,True,1,2.17596697807312,2,
R2426,imirás,71,word,1,True,1,2.936048746109009,2,
R2426,rondaba,72,word,2,True,1,1.8378911018371582,1,
R2426,gachará,73,word,2,False,1,1.4210140705108643,2,
R2426,gacharás,74,word,2,False,1,1.1459908485412598,2,
R2426,pactarán,75,word,1,False,1,2.178029775619507,1,
R2426,arderíamos,76,word,1,False,1,3.114734172821045,1,
R2426,lamerán,77,word,1,False,1,1.845992088317871,1,
R2426,somerías,78,word,1,True,1,2.536940097808838,2,
R2426,cedía,79,word,2,True,1,3.288090944290161,1,
R2426,ritería,80,word,1,True,1,3.201968193054199,2,
R2426,temerías,81,word,1,False,1,2.008452892303467,1,
R2426,vultarás,82,word,2,False,1,2.6718480587005615,2,
R2426,sauabas,83,word,1,True,1,2.8249590396881104,2,
R2426,bigaría,84,word,2,False,1,2.8036327362060547,2,
R2426,sumabas,85,word,2,True,1,1.7279260158538818,1,
R2426,bailaba,86,word,2,True,1,1.2350149154663086,1,
R2426,arderé,87,word,2,True,1,1.3911139965057373,1,
R2426,rayaría,88,word,2,True,1,1.7121601104736328,1,
R2426,vendías,89,word,2,True,1,0.844963788986206,1,
R2426,mardiremos,90,word,1,True,1,2.504930019378662,2,
R2426,galaré,91,word,1,True,1,2.005904197692871,2,
R2426,mardíamos,92,word,2,False,1,3.731048822402954,2,
R2426,comeré,93,word,2,True,1,1.2210209369659424,1,
R2426,chanrarás,94,word,2,False,1,2.7859489917755127,2,
R2426,quijarían,95,word,1,True,1,2.6888582706451416,2,
R2426,bailaríamos,96,word,2,True,1,0.8962600231170654,1,
R2426,pavábamos,97,word,1,True,1,2.205976724624634,2,
R2426,chanrábamos,98,word,1,True,1,2.1020419597625732,2,
R2426,pavaríamos,99,word,2,False,1,2.191892147064209,2,
R2426,bimarías,100,word,2,False,1,2.9571378231048584,2,
R2426,casaba,101,word,2,True,1,0.9620518684387207,1,
R2426,subirás,102,word,2,True,1,4.704135179519653,1,
R2426,honderás,103,word,2,False,1,4.632137060165405,2,
R2426,faltaremos,104,word,2,True,1,2.415917158126831,1,
R2426,mertaba,105,word,1,True,1,1.5659258365631104,2,
R2426,tujirá,106,word,2,False,1,3.4959120750427246,2,
R2426,cichías,107,word,2,False,1,4.046016216278076,2,
R2426,obrarán,108,word,2,True,1,2.026984930038452,1,
R2426,cortaban,109,word,2,True,1,1.0900428295135498,1,
R2426,temerá,110,word,2,True,1,5.4200119972229,1,
R2426,bigaríamos,111,word,1,True,1,3.057328224182129,2,
R2426,faltarás,112,word,2,True,1,1.3075180053710938,1,
R2426,cenarás,113,word,2,True,1,1.2258780002593994,1,
R2426,cumpliré,114,word,2,True,1,1.3650500774383545,1,
R2426,seserá,115,word,2,False,1,3.2270240783691406,2,
R2426,casaban,116,word,2,True,1,0.788032054901123,1,
R2426,focarían,117,word,1,True,1,2.265087842941284,2,
R2426,cenarías,118,word,2,True,1,1.782818078994751,1,
R2426,focaban,119,word,2,False,1,1.5202491283416748,2,
R2426,prenderíamos,120,word,2,True,1,2.109544038772583,1,
R2426,sauaba,121,word,1,True,1,2.4601120948791504,2,
R2426,mertabas,122,word,1,True,1,1.743016242980957,2,
R2426,juraban,123,word,2,True,1,1.4230430126190186,1,
R2426,casaríamos,124,word,2,True,1,3.459981918334961,1,
R2426,anreríamos,125,word,1,True,1,3.4179840087890625,2,
R2426,quijábamos,126,word,1,True,1,3.1628811359405518,2,
R2426,lailabas,127,word,1,True,1,2.8779919147491455,2,
R2426,bigaban,128,word,1,True,1,1.1340818405151367,2,
R2426,juraré,129,word,2,True,1,0.9627199172973633,1,
R2426,bimabas,130,word,1,True,1,3.0130832195281982,2,
R2426,besarán,131,word,2,True,1,1.2719786167144775,1,
R2426,sindaban,132,word,1,True,1,1.3840041160583496,2,
R2426,faltarían,133,word,2,True,1,1.3099498748779297,1,
R2426,retarías,134,word,2,True,1,2.3700060844421387,1,
R2426,prendería,135,word,2,True,1,1.7770960330963135,1,
R2426,pavaré,136,word,1,True,1,2.376946210861206,2,
R2426,anrías,137,word,1,True,1,1.418031930923462,2,
R2426,lorgarán,138,word,2,False,1,0.9909608364105225,2,
R2426,temerán,139,word,1,False,1,3.0209312438964844,1,
R2426,barrerá,140,word,2,True,1,3.0792717933654785,1,
R2426,prenderás,141,word,2,True,1,2.29407000541687,1,
R2426,formaré,142,word,2,True,1,2.4370648860931396,1,
R2426,rondaré,143,word,1,False,1,1.709902048110962,1,
R2426,sumaré,144,word,2,True,1,1.7440338134765625,1,
R2426,frindían,145,word,1,True,1,2.459968090057373,2,
R2426,someré,146,word,2,False,1,1.8700590133666992,2,
R2426,lacherá,147,word,2,False,1,1.608996868133545,2,
R2426,temería,148,word,2,True,1,2.7040719985961914,1,
R2426,sindarás,149,word,1,True,1,4.155011177062988,2,
R2426,rimarán,150,word,2,True,1,2.6898081302642822,1,
R2426,lamíamos,151,word,2,True,1,3.1291327476501465,1,
R2426,lacherás,152,word,1,True,1,1.891969919204712,2,
R2426,riterán,153,word,1,True,1,1.4190409183502197,2,
R2426,correrán,154,word,2,True,1,1.074894905090332,1,
R2426,cumpliremos,155,word,2,True,1,2.5868711471557617,1,
R2426,morderán,156,word,2,True,1,2.42181396484375,1,
R2426,cipían,157,word,2,False,2,3.5453567504882812,2,
R2426,chanraba,158,word,1,True,2,3.958059072494507,2,
R2426,retaré,159,word,2,True,2,1.9340159893035889,1,
R2426,cetábamos,160,word,1,True,2,3.1949620246887207,2,
R2426,coseríamos,161,word,1,False,2,2.8869712352752686,1,
R2426,tujiría,162,word,1,True,2,3.512108087539673,2,
R2426,gruñían,163,word,2,True,2,1.2861721515655518,1,
R2426,frindíamos,164,word,1,True,2,4.867975234985352,2,
R2426,unirás,165,word,1,False,2,1.7989592552185059,1,
R2426,pavaban,166,word,1,True,2,3.2671008110046387,2,
R2426,burrarás,167,word,2,False,2,2.946903705596924,2,
R2426,cuarríamos,168,word,1,True,2,3.29419207572937,2,
R2426,barrerías,169,word,2,True,2,2.671283006668091,1,
R2426,quijará,170,word,2,False,2,2.292847156524658,2,
R2426,unía,171,word,2,True,2,1.0250930786132812,1,
R2426,tosía,172,word,2,True,2,1.222341775894165,1,
R2426,lachería,173,word,2,False,2,2.6102230548858643,2,
R2426,retaríamos,174,word,1,False,2,4.6702330112457275,1,
R2426,cichirían,175,word,2,False,2,3.670264959335327,2,
R2426,galabas,176,word,2,False,2,2.7590458393096924,2,
R2426,subías,177,word,2,True,2,0.9469089508056641,1,
R2426,anrerías,178,word,1,True,2,1.5730910301208496,2,
R2426,cedería,179,word,2,True,2,2.1537389755249023,1,
R2426,cortaríamos,180,word,2,True,2,2.5742928981781006,1,
R2426,venderé,181,word,2,True,2,1.5979530811309814,1,
R2426,lailaba,182,word,1,True,2,4.304944753646851,2,
R2426,ritía,183,word,1,True,2,3.0458271503448486,2,
R2426,bailará,184,word,2,True,2,3.9299392700195312,1,
R2426,cichíamos,185,word,1,True,2,1.840813159942627,2,
R2426,cubrirían,186,word,2,True,2,1.3901288509368896,1,
R2426,cuarrirías,187,word,1,True,2,2.2290828227996826,2,
R2426,sufriremos,188,word,2,True,2,1.2458641529083252,1,
R2426,tuplía,189,word,1,True,2,1.4357080459594727,2,
R2426,frindería,190,word,1,True,2,1.5838658809661865,2,
R2426,cetabas,191,word,1,True,2,3.6850922107696533,2,
R2426,quijaban,192,word,1,True,2,1.4939110279083252,2,
R2426,toserían,193,word,1,False,2,6.515979051589966,1,
R2426,lamerá,194,word,2,True,2,2.352715015411377,1,
R2426,rondabas,195,word,1,False,2,3.037954807281494,1,
R2426,ardía,196,word,2,True,2,2.058089017868042,1,
R2426,fanerías,197,word,1,True,2,1.3489840030670166,2,
R2426,gachabas,198,word,1,True,2,1.0679521560668945,2,
R2426,lamían,199,word,2,True,2,1.3908779621124268,1,
R2426,charlaré,200,word,1,False,2,1.1594109535217285,1,
R2426,galábamos,201,word,1,True,2,0.9930119514465332,2,
R2426,lorgaríamos,202,word,2,False,2,1.350127935409546,2,
R2426,barrerían,203,word,2,True,2,1.362091064453125,1,
R2426,rayará,204,word,2,True,2,2.351024866104126,1,
R2426,maftabas,205,word,1,True,2,1.6833548545837402,2,
R2426,cisaremos,206,word,1,True,2,2.264967918395996,2,
R2426,cisaría,207,word,1,True,2,1.2460908889770508,2,
R2426,cichirá,208,word,1,True,2,1.9855952262878418,2,
R2426,cubrían,209,word,2,True,2,2.6169190406799316,1,
R2426,frinderá,210,word,2,False,2,1.8260531425476074,2,
R2426,cetaríamos,211,word,1,True,2,3.5480518341064453,2,
R2426,prendías,212,word,2,True,2,1.645888090133667,1,
R2426,runaban,213,word,1,True,2,2.450093984603882,2,
R2426,anrería,214,word,1,True,2,2.8171041011810303,2,
R2426,lorgaré,215,word,2,False,2,1.1099541187286377,2,
R2426,partiré,216,word,1,False,2,5.220722913742065,1,
R2426,imirías,217,word,1,True,2,4.494134902954102,2,
R2426,cichiríamos,218,word,2,False,2,2.049095869064331,2,
R2426,galaban,219,word,1,True,2,1.7059509754180908,2,
R2426,rotaremos,220,word,1,False,2,3.8280200958251953,1,
R2426,cubriría,221,word,2,True,2,3.9318268299102783,1,
R2426,lailaban,222,word,1,True,2,3.0410141944885254,2,
R2426,chanraríamos,223,word,1,True,2,1.7190511226654053,2,
R2426,comías,224,word,2,True,2,1.2129948139190674,1,
R2426,casábamos,225,word,2,True,2,1.1290233135223389,1,
R2426,luchábamos,226,word,2,True,2,4.210118770599365,1,
R2426,cortaré,227,word,2,True,2,0.9930739402770996,1,
R2426,frinderán,228,word,2,False,2,1.8648929595947266,2,
R2426,narraba,229,word,2,True,2,0.8340671062469482,1,
R2426,monceré,230,word,2,False,2,4.269564867019653,2,
R2426,cuarrirá,231,word,2,False,2,2.3816800117492676,2,
R2426,comeremos,232,word,2,True,2,1.3570880889892578,1,
R2426,cuarriré,233,word,1,True,2,2.325813055038452,2,
R2426,narrábamos,234,word,1,False,2,2.16196608543396,1,
R2426,sindarán,235,word,1,True,2,3.039015054702759,2,
R2426,comerá,236,word,2,True,2,1.2994399070739746,1,
R2426,ciperemos,237,word,1,True,2,4.494178056716919,2,
R2426,prenderé,238,word,2,True,2,1.1749861240386963,1,
R2426,morderás,239,word,2,True,2,3.632025718688965,1,
R2426,meterá,240,word,2,True,2,1.2609939575195312,1,
R2426,uniré,241,word,2,True,2,1.3681206703186035,1,
R2426,prenderías,242,word,2,True,2,2.6898019313812256,1,
R2426,bailarán,243,word,2,True,2,0.9221317768096924,1,
R2426,sindarían,244,word,2,False,2,2.2240288257598877,2,
R2426,pavarán,245,word,1,True,2,1.404036045074463,2,
R2426,tujiré,246,word,1,True,2,1.084867000579834,2,
R2426,tupliré,247,word,1,True,2,1.68715500831604,2,
R2426,rotaría,248,word,1,False,2,1.7047791481018066,1,
R2426,sesían,249,word,2,False,2,1.8461980819702148,2,
R2426,gachábamos,250,word,1,True,2,1.0250000953674316,2,
R2426,cubrirá,251,word,2,True,2,2.6060760021209717,1,
R2426,bigaremos,252,word,1,True,2,1.7429888248443604,2,
R2426,juraría,253,word,1,False,2,3.22702693939209,1,
R2426,charlarían,254,word,2,True,2,3.5139858722686768,1,
R2426,gruñiría,255,word,2,True,2,1.6781177520751953,1,
R2426,faltábamos,256,word,2,True,2,2.2370400428771973,1,
R2426,rimaba,257,word,1,False,2,2.0201170444488525,1,
R2426,ritían,258,word,1,True,2,3.0680060386657715,2,
R2426,retará,259,word,2,True,2,1.8680777549743652,1,
R2426,gacharé,260,word,1,True,2,1.5509450435638428,2,
R2426,mardiríamos,261,word,1,True,2,3.8044919967651367,2,
R2426,fundirás,262,word,2,True,2,7.038914918899536,1,
R2426,cuarrirán,263,word,1,True,2,2.2739601135253906,2,
R2426,fanerás,264,word,1,True,2,1.4459917545318604,2,
R2426,quemaba,265,word,2,True,2,1.2950100898742676,1,
R2426,uniríamos,266,word,2,True,2,1.8350629806518555,1,
R2426,morderías,267,word,2,True,2,3.4219441413879395,1,
R2426,mertarías,268,word,1,True,2,4.482946157455444,2,
R2426,formará,269,word,2,True,2,1.2578706741333008,1,
R2426,frinderemos,270,word,1,True,2,1.3771390914916992,2,
R2426,gacharían,271,word,1,True,2,2.13395619392395,2,
R2426,coserá,272,word,2,True,2,3.311012029647827,1,
R2426,ceflíamos,273,word,1,True,2,2.7069602012634277,2,
R2426,cenaré,274,word,2,True,2,1.9615399837493896,1,
R2426,eplarán,275,word,1,True,2,3.4278171062469482,2,
R2426,partirán,276,word,2,True,2,2.3009469509124756,1,
R2426,cenabas,277,word,2,True,2,0.9989428520202637,1,
R2426,tosería,278,word,2,True,2,0.927577018737793,1,
R2426,burraban,279,word,1,True,2,2.9310379028320312,2,
R2426,maftábamos,280,word,1,True,2,5.298091173171997,2,
R2426,cortaba,281,word,2,True,2,1.1389307975769043,1,
R2426,lacheremos,282,word,1,True,2,3.0160021781921387,2,
R2426,pactarían,283,word,1,False,2,3.497932195663452,1,
R2426,retaremos,284,word,2,True,2,3.4789252281188965,1,
R2426,zusaré,285,word,1,True,2,3.7471179962158203,2,
R2426,cortarán,286,word,2,True,2,4.215167045593262,1,
R2426,lorgará,287,word,2,False,2,1.1939191818237305,2,
R2426,prendíamos,288,word,1,False,2,4.469940900802612,1,
R2426,besaremos,289,word,2,True,2,1.4510111808776855,1,
R2426,unirían,290,word,2,True,2,0.9978339672088623,1,
R2426,zusará,291,word,2,False,2,3.6122419834136963,2,
R2426,charlaba,292,word,1,False,2,1.7090060710906982,1,
R2426,retarían,293,word,2,True,2,1.1750516891479492,1,
R2426,porerían,294,word,2,False,2,2.529981851577759,2,
R2426,cenaría,295,word,2,True,2,3.1139469146728516,1,
R2426,pactaré,296,word,1,False,2,2.5919947624206543,1,
R2426,sesería,297,word,2,False,2,2.125904083251953,2,
R2426,cosían,298,word,2,True,2,1.9119420051574707,1,
R2426,fundirán,299,word,2,True,2,2.1897521018981934,1,
R2426,lacheríamos,300,word,1,True,2,1.1470229625701904,2,
R2426,burrarías,301,word,2,False,2,2.7110259532928467,2,
R2426,somías,302,word,2,False,2,2.530102014541626,2,
R2426,venderás,303,word,2,True,2,3.408979892730713,1,
R2426,sauaban,304,word,1,True,2,7.850158929824829,2,
R2426,subiría,305,word,2,True,2,2.9149081707000732,1,
R2426,rimaban,306,word,1,False,2,2.117053747177124,1,
R2426,imiremos,307,word,1,True,2,2.055050849914551,2,
R2426,charlarás,308,word,1,False,2,2.577910900115967,1,
R2426,quemaría,309,word,1,False,2,3.654849052429199,1,
R2426,toserías,310,word,2,True,2,1.9071359634399414,1,
R2426,chanraré,311,word,2,False,2,1.4248218536376953,2,
R2426,sufrirías,312,word,2,True,2,1.8651890754699707,1,
R2426,ceflerían,313,word,1,True,3,1.8681061267852783,2,
R2426,rayaríamos,314,word,2,True,3,0.9389479160308838,1,
R2426,anreré,315,word,1,True,3,1.1859848499298096,2,
R2426,barrían,316,word,2,True,3,0.8538429737091064,1,
R2426,quijaré,317,word,1,True,3,0.961068868637085,2,
R2426,sindaríamos,318,word,1,True,3,1.2220618724822998,2,
R2426,temeré,319,word,2,True,3,0.6639838218688965,1,
R2426,frinderás,320,word,1,True,3,0.8700530529022217,2,
R2426,narraremos,321,word,1,False,3,1.4782540798187256,1,
R2426,ceterán,322,word,1,True,3,1.0249662399291992,2,
R2426,runábamos,323,word,2,False,3,1.9628801345825195,2,
R2426,lorgaban,324,word,2,False,3,1.1490721702575684,2,
R2426,someremos,325,word,2,False,3,1.546018123626709,2,
R2426,hondías,326,word,1,True,3,1.4845540523529053,2,
R2426,cetían,327,word,2,False,3,1.4690067768096924,2,
R2426,rimaríamos,328,word,1,False,3,1.7751011848449707,1,
R2426,retarás,329,word,2,True,3,1.2219820022583008,1,
R2426,lacherán,330,word,2,False,3,1.5608546733856201,2,
R2426,tuplirán,331,word,2,False,3,1.546058177947998,2,
R2426,somerán,332,word,2,False,3,0.9478757381439209,2,
R2426,galaríamos,333,word,1,True,3,0.752936840057373,2,
R2426,bimaría,334,word,1,True,3,1.2691071033477783,2,
R2426,cubriremos,335,word,1,False,3,1.2319221496582031,1,
R2426,fundiremos,336,word,2,True,3,1.9997210502624512,1,
R2426,pactaría,337,word,2,True,3,1.7249317169189453,1,
R2426,cumplirás,338,word,2,True,3,0.8738579750061035,1,
R2426,cortábamos,339,word,2,True,3,0.8994219303131104,1,
R2426,rayábamos,340,word,1,False,3,2.65515398979187,1,
R2426,correrás,341,word,2,True,3,0.840911865234375,1,
R2426,besaría,342,word,2,True,3,0.7633500099182129,1,
R2426,tosían,343,word,2,True,3,0.6815860271453857,1,
R2426,focarás,344,word,2,False,3,1.087831974029541,2,
R2426,barría,345,word,2,True,3,0.7965528964996338,1,
R2426,rondarían,346,word,1,False,3,0.9970390796661377,1,
R2426,porían,347,word,2,False,3,0.9250760078430176,2,
R2426,retábamos,348,word,2,True,3,1.9013729095458984,1,
R2426,bimarás,349,word,1,True,3,2.18908429145813,2,
R2426,prenderán,350,word,2,True,3,1.1300699710845947,1,
R2426,lailábamos,351,word,1,True,3,1.1299831867218018,2,
R2426,barreré,352,word,2,True,3,0.787086009979248,1,
R2426,tujíamos,353,word,1,True,3,1.024151086807251,2,
R2426,toseríamos,354,word,2,True,3,0.9719760417938232,1,
R2426,prendía,355,word,2,True,3,0.8139758110046387,1,
R2426,cetíamos,356,word,1,True,3,1.5908448696136475,2,
R2426,eplaría,357,word,1,True,3,1.8850319385528564,2,
R2426,gruñirían,358,word,2,True,3,1.0380949974060059,1,
R2426,bruvirás,359,word,1,True,3,1.777534008026123,2,
R2426,cuarriremos,360,word,1,True,3,1.7378959655761719,2,
R2426,lailaríamos,361,word,1,True,3,1.7120568752288818,2,
R2426,pavará,362,word,1,True,3,1.5239291191101074,2,
R2426,unirías,363,word,2,True,3,0.9999780654907227,1,
R2426,lucharías,364,word,2,True,3,0.9759948253631592,1,
R2426,temeremos,365,word,2,True,3,1.3179869651794434,1,
R2426,metíamos,366,word,1,False,3,1.276371955871582,1,
R2426,cortarían,367,word,2,True,3,2.2394399642944336,1,
R2426,cortaría,368,word,2,True,3,1.0819320678710938,1,
R2426,obrarían,369,word,2,True,3,1.0468239784240723,1,
R2426,cefleríamos,370,word,1,True,3,1.1450650691986084,2,
R2426,bailarían,371,word,2,True,3,0.826948881149292,1,
R2426,rimará,372,word,2,True,3,1.6649649143218994,1,
R2426,mardías,373,word,2,False,3,1.5959858894348145,2,
R2426,bigará,374,word,2,False,3,1.0059950351715088,2,
R2426,nadaría,375,word,2,True,3,0.9588298797607422,1,
R2426,burraré,376,word,2,False,3,1.345956802368164,2,
R2426,riteríamos,377,word,1,True,3,1.2011289596557617,2,
R2426,lorgarías,378,word,2,False,3,1.5980873107910156,2,
R2426,runaré,379,word,2,False,3,2.0469748973846436,2,
R2426,mertará,380,word,1,True,3,3.6055550575256348,2,
R2426,formábamos,381,word,2,True,3,1.647947072982788,1,
R2426,quijaríamos,382,word,1,True,3,3.025954008102417,2,
R2426,formarás,383,word,2,True,3,1.4949121475219727,1,
R2426,nadarás,384,word,2,True,3,1.3138980865478516,1,
R2426,porías,385,word,1,True,3,2.240799903869629,2,
R2426,faltaríamos,386,word,2,True,3,1.5430948734283447,1,
R2426,charlaríamos,387,word,1,False,3,0.997006893157959,1,
R2426,cisarás,388,word,2,False,3,1.2129030227661133,2,
R2426,juraríamos,389,word,2,True,3,2.2864630222320557,1,
R2426,sauaríamos,390,word,1,True,3,3.620943069458008,2,
R2426,lacherían,391,word,1,True,3,1.7978858947753906,2,
R2426,mardirías,392,word,1,True,3,1.8749959468841553,2,
R2426,cichía,393,word,2,False,3,2.018052101135254,2,
R2426,quemábamos,394,word,1,False,3,2.930075168609619,1,
R2426,imiré,395,word,1,True,3,2.473982095718384,2,
R2426,cetarán,396,word,1,True,3,2.3499109745025635,2,
R2426,comería,397,word,2,True,3,0.9293608665466309,1,
R2426,hondíamos,398,word,1,True,3,2.635172128677368,2,
R2426,maftaríamos,399,word,1,True,3,1.8882899284362793,2,
R2426,seserás,400,word,2,False,3,1.4171957969665527,2,
R2426,riterías,401,word,1,True,3,1.446187973022461,2,
R2426,cuarrías,402,word,2,False,3,2.537137031555176,2,
R2426,cuarrirás,403,word,2,False,3,1.232342004776001,2,
R2426,faltaría,404,word,2,True,3,1.0602359771728516,1,
R2426,rondaría,405,word,1,False,3,1.4462950229644775,1,
R2426,tosías,406,word,2,True,3,1.0702829360961914,1,
R2426,bimarán,407,word,2,False,3,1.5285749435424805,2,
R2426,cederán,408,word,2,True,3,1.52618408203125,1,
R2426,formaremos,409,word,2,True,3,2.0493171215057373,1,
R2426,quemarán,410,word,2,True,3,1.4250438213348389,1,
R2426,seseremos,411,word,2,False,3,3.5110881328582764,2,
R2426,sauará,412,word,1,True,3,1.8961000442504883,2,
R2426,charlábamos,413,word,1,False,3,1.8489952087402344,1,
R2426,somía,414,word,1,True,3,1.658909797668457,2,
R2426,sumaba,415,word,2,True,3,1.0892748832702637,1,
R2426,gruñiremos,416,word,2,True,3,1.047752857208252,1,
R2426,arderás,417,word,2,True,3,2.433116912841797,1,
R2426,lachían,418,word,1,True,3,1.6454977989196777,2,
R2426,correrías,419,word,2,True,3,3.9981629848480225,1,
R2426,cefleré,420,word,1,True,3,1.0429871082305908,2,
R2426,lucharemos,421,word,2,True,3,1.4801290035247803,1,
R2426,burraba,422,word,1,True,3,2.067862033843994,2,
R2426,bigábamos,423,word,1,True,3,1.9347302913665771,2,
R2426,cipíamos,424,word,1,True,3,1.7090070247650146,2,
R2426,moncerían,425,word,1,True,3,1.7411201000213623,2,
R2426,sumaremos,426,word,1,False,3,3.6401119232177734,1,
R2426,pactábamos,427,word,1,False,3,1.7937703132629395,1,
R2426,galarán,428,word,1,True,3,1.4025521278381348,2,
R2426,faltaba,429,word,2,True,3,1.2381260395050049,1,
R2426,coserán,430,word,2,True,3,2.428471088409424,1,
R2426,cetarías,431,word,2,False,3,2.3389787673950195,2,
R2426,meteré,432,word,2,True,3,1.1299591064453125,1,
R2426,comerías,433,word,2,True,3,1.847066879272461,1,
R2426,quemaban,434,word,2,True,3,0.916046142578125,1,
R2426,bigabas,435,word,1,True,3,2.5969529151916504,2,
R2426,rotaríamos,436,word,1,False,3,3.0929791927337646,1,
R2426,eplabas,437,word,1,True,3,2.5290639400482178,2,
R2426,mordían,438,word,2,True,3,1.0150611400604248,1,
R2426,fundiríamos,439,word,2,True,3,1.7209749221801758,1,
R2426,chanrarán,440,word,1,True,3,3.78802490234375,2,
R2426,sindaría,441,word,1,True,3,1.5989680290222168,2,
R2426,mertaré,442,word,2,False,3,1.096013069152832,2,
R2426,uniremos,443,word,2,True,3,1.2239460945129395,1,
R2426,sumarían,444,word,1,False,3,2.070789098739624,1,
R2426,fanerían,445,word,1,True,3,2.1840031147003174,2,
R2426,barrías,446,word,2,True,3,1.681924819946289,1,
R2426,lameré,447,word,2,True,3,1.1778874397277832,1,
R2426,cetarían,448,word,1,True,3,1.9741969108581543,2,
R2426,cenarán,449,word,2,True,3,1.0670478343963623,1,
R2426,burraremos,450,word,1,True,3,1.9025218486785889,2,
R2426,maftaría,451,word,1,True,3,1.7238938808441162,2,
R2426,bigaba,452,word,1,True,3,1.9939520359039307,2,
R2426,fundirían,453,word,1,False,3,1.5600831508636475,1,
R2426,lorgaremos,454,word,2,False,3,1.5568490028381348,2,
R2426,lamías,455,word,1,False,3,0.9845678806304932,1,
R2426,bimaremos,456,word,1,True,3,1.1409189701080322,2,
R2426,cortabas,457,word,2,True,3,1.1618328094482422,1,
R2426,charlaban,458,word,1,False,3,2.5219759941101074,1,
R2426,zusaría,459,word,2,False,3,2.4900877475738525,2,
R2426,cubrirán,460,word,2,True,3,2.2203969955444336,1,
R2426,fundíamos,461,word,1,False,3,2.5669450759887695,1,
R2426,subía,462,word,2,True,3,1.0669970512390137,1,
R2426,mardía,463,word,1,True,3,1.8889038562774658,2,
R2426,obraremos,464,word,1,False,3,2.02013897895813,1,
R2426,lamerían,465,word,1,False,3,1.8419458866119385,1,
R2426,lamerías,466,word,2,True,3,1.2859129905700684,1,
R2426,subirán,467,word,2,True,3,2.0971038341522217,1,
R2426,runabas,468,word,1,True,3,1.0157063007354736,2,
R2426,lorgaba,469,word,2,False,4,1.0719683170318604,2,
R2426,pactabas,470,word,1,False,4,1.3419792652130127,1,
R2426,quijarás,471,word,1,True,4,1.7571911811828613,2,
R2426,faltaré,472,word,2,True,4,0.8413288593292236,1,
R2426,bigarían,473,word,1,True,4,1.2668311595916748,2,
R2426,galaría,474,word,2,False,4,1.0680651664733887,2,
R2426,gachaba,475,word,2,False,4,1.248703956604004,2,
R2426,cetarás,476,word,2,False,4,1.634054183959961,2,
R2426,tujías,477,word,2,False,4,1.182159185409546,2,
R2426,sufriré,478,word,2,True,4,0.7369599342346191,1,
R2426,fundiría,479,word,2,True,4,0.9750158786773682,1,
R2426,luntiré,480,word,1,True,4,1.1319351196289062,2,
R2426,charlaría,481,word,2,True,4,1.6390769481658936,1,
R2426,partías,482,word,2,True,4,1.4638290405273438,1,
R2426,subíamos,483,word,2,True,4,1.0595288276672363,1,
R2426,honderemos,484,word,1,True,4,2.396942615509033,2,
R2426,partirían,485,word,2,True,4,3.756103992462158,1,
R2426,rayabas,486,word,2,True,4,1.1667120456695557,1,
R2426,partiremos,487,word,2,True,4,1.666905164718628,1,
R2426,sauarían,488,word,1,True,4,1.6949498653411865,2,
R2426,gruñirán,489,word,2,True,4,0.928023099899292,1,
R2426,sumará,490,word,2,True,4,1.4230399131774902,1,
R2426,toserá,491,word,2,True,4,0.8634490966796875,1,
R2426,sufrirán,492,word,2,True,4,1.4319229125976562,1,
R2426,luntiremos,493,word,1,True,4,3.7553019523620605,2,
R2426,pavarás,494,word,1,True,4,1.4629878997802734,2,
R2426,barrería,495,word,2,True,4,0.7758409976959229,1,
R2426,nadarían,496,word,2,True,4,0.8219718933105469,1,
R2426,cosías,497,word,1,False,4,1.8451242446899414,1,
R2426,correrían,498,word,2,True,4,0.8859860897064209,1,
R2426,focará,499,word,2,False,4,1.5220329761505127,2,
R2426,jurabas,500,word,2,True,4,1.7569801807403564,1,
R2426,luntirán,501,word,1,True,4,1.568124771118164,2,
R2426,bimaré,502,word,1,True,4,1.3158180713653564,2,
R2426,cenará,503,word,2,True,4,0.8699636459350586,1,
R2426,jurarían,504,word,1,False,4,2.378488779067993,1,
R2426,porerán,505,word,2,False,4,3.0060291290283203,2,
R2426,focábamos,506,word,2,False,4,2.4381039142608643,2,
R2426,chanrarían,507,word,1,True,4,2.077028751373291,2,
R2426,cenábamos,508,word,2,True,4,0.9672768115997314,1,
R2426,obrabas,509,word,1,False,4,2.406078815460205,1,
R2426,vultábamos,510,word,1,True,4,1.4809589385986328,2,
R2426,cuarriría,511,word,1,True,4,1.4449889659881592,2,
R2426,cenaban,512,word,2,True,4,0.9289300441741943,1,
R2426,lailarás,513,word,1,True,4,2.235893964767456,2,
R2426,fundían,514,word,2,True,4,1.849862813949585,1,
R2426,cetería,515,word,2,False,4,3.4087469577789307,2,
R2426,sufriríamos,516,word,2,True,4,1.3499817848205566,1,
R2426,luntías,517,word,1,True,4,1.2840759754180908,2,
R2426,frindía,518,word,1,True,4,1.6610090732574463,2,
R2426,seserías,519,word,2,False,4,1.3688578605651855,2,
R2426,sumábamos,520,word,2,True,4,2.287865161895752,1,
R2426,ciperías,521,word,1,True,4,1.0880260467529297,2,
R2426,riterás,522,word,1,True,4,0.7908360958099365,2,
R2426,tosíamos,523,word,1,False,4,3.5341498851776123,1,
R2426,coserías,524,word,2,True,4,5.447160005569458,1,
R2426,pactaba,525,word,2,True,4,2.491100311279297,1,
R2426,prenderían,526,word,2,True,4,3.7284140586853027,1,
R2426,riterá,527,word,2,False,4,1.9750609397888184,2,
R2426,bruviría,528,word,1,True,4,7.238234996795654,2,
R2426,partiría,529,word,2,True,4,1.7589800357818604,1,
R2426,sindará,530,word,2,False,4,3.8999879360198975,2,
R2426,quijaría,531,word,1,True,4,1.1559979915618896,2,
R2426,comíamos,532,word,2,True,4,1.2038459777832031,1,
R2426,fanerán,533,word,1,True,4,3.2489452362060547,2,
R2426,meteremos,534,word,2,True,4,1.4119727611541748,1,
R2426,mordía,535,word,2,True,4,2.1670100688934326,1,
R2426,cumplirán,536,word,2,True,4,1.741915225982666,1,
R2426,ceflía,537,word,1,True,4,0.9249429702758789,2,
R2426,cetía,538,word,1,True,4,1.1051137447357178,2,
R2426,rondaremos,539,word,2,True,4,1.852910041809082,1,
R2426,maftará,540,word,1,True,4,2.9513258934020996,2,
R2426,mertaban,541,word,2,False,4,2.690134048461914,2,
R2426,cisaré,542,word,2,False,4,1.0970501899719238,2,
R2426,maftaban,543,word,2,False,4,2.5980758666992188,2,
R2426,rimarías,544,word,2,True,4,1.3368492126464844,1,
R2426,rimarían,545,word,2,True,4,0.8249490261077881,1,
R2426,imiríamos,546,word,1,True,4,2.4809889793395996,2,
R2426,besaríamos,547,word,2,True,4,1.193965196609497,1,
R2426,metía,548,word,2,True,4,1.63804292678833,1,
R2426,tuplían,549,word,1,True,4,2.316992998123169,2,
R2426,eplarás,550,word,1,True,4,1.5689680576324463,2,
R2426,partían,551,word,2,True,4,1.3941051959991455,1,
R2426,narrarías,552,word,2,True,4,1.407012701034546,1,
R2426,narrarían,553,word,2,True,4,1.0441019535064697,1,
R2426,tujirán,554,word,1,True,4,1.0877959728240967,2,
R2426,riteremos,555,word,2,False,4,1.5619618892669678,2,
R2426,formarían,556,word,2,True,4,1.195039987564087,1,
R2426,uníamos,557,word,2,True,4,0.8389921188354492,1,
R2426,poreremos,558,word,2,False,4,2.557105779647827,2,
R2426,zusaban,559,word,1,True,4,5.028095006942749,2,
R2426,rayaban,560,word,1,False,4,1.3149909973144531,1,
R2426,faltará,561,word,2,True,4,2.8810970783233643,1,
R2426,maftarás,562,word,1,True,4,1.9048693180084229,2,
R2426,bailábamos,563,word,2,True,4,1.223175048828125,1,
R2426,cederían,564,word,2,True,4,1.5599641799926758,1,
R2426,sindaremos,565,word,2,False,4,2.41998291015625,2,
R2426,focabas,566,word,2,False,4,1.020108699798584,2,
R2426,pavarías,567,word,2,False,4,4.0976409912109375,2,
R2426,focaba,568,word,2,False,4,0.7686429023742676,2,
R2426,unirán,569,word,2,True,4,0.8489418029785156,1,
R2426,fundías,570,word,2,True,4,0.7860939502716064,1,
R2426,faneré,571,word,2,False,4,0.6839020252227783,2,
R2426,sumaríamos,572,word,2,True,4,3.4750359058380127,1,
R2426,cisarías,573,word,2,False,4,1.9370291233062744,2,
R2426,rimabas,574,word,2,True,4,1.591968059539795,1,
R2426,venderán,575,word,2,True,4,1.3549420833587646,1,
R2426,honderías,576,word,2,False,4,2.661064863204956,2,
R2426,subirá,577,word,2,True,4,1.0730068683624268,1,
R2426,cedían,578,word,2,True,4,1.8110589981079102,1,
R2426,cosería,579,word,2,True,4,1.7880349159240723,1,
R2426,imirían,580,word,1,True,4,2.1680221557617188,2,
R2426,rondaban,581,word,2,True,4,1.463989019393921,1,
R2426,frinderías,582,word,1,True,4,2.5070548057556152,2,
R2426,rayarían,583,word,2,True,4,2.3700320720672607,1,
R2426,prendían,584,word,2,True,4,2.5648298263549805,1,
R2426,somería,585,word,1,True,4,1.0910711288452148,2,
R2426,mertaremos,586,word,1,True,4,2.178950071334839,2,
R2426,rayaba,587,word,2,True,4,1.0750460624694824,1,
R2426,bimábamos,588,word,2,False,4,2.3849830627441406,2,
R2426,focaré,589,word,2,False,4,0.8920550346374512,2,
R2426,luchabas,590,word,2,True,4,1.7460899353027344,1,
R2426,mertarán,591,word,2,False,4,1.3138189315795898,2,
R2426,narrabas,592,word,1,False,4,2.298431158065796,1,
R2426,somerás,593,word,2,False,4,0.9818668365478516,2,
R2426,zusarás,594,word,2,False,4,2.230072021484375,2,
R2426,rimaremos,595,word,1,False,4,2.406951904296875,1,
R2426,cichiremos,596,word,2,False,4,1.0589590072631836,2,
R2426,rondará,597,word,2,True,4,0.9339799880981445,1,
R2426,lucharían,598,word,2,True,4,1.026082992553711,1,
R2426,narrará,599,word,2,True,4,2.103997230529785,1,
R2426,vultaré,600,word,2,False,4,2.2251598834991455,2,
R2426,luchará,601,word,2,True,4,0.7069981098175049,1,
R2426,eplarías,602,word,1,True,4,1.5120210647583008,2,
R2426,runarías,603,word,2,False,4,3.139155149459839,2,
R2426,quemarían,604,word,2,True,4,3.198965072631836,1,
R2426,lailaría,605,word,1,True,4,1.484023094177246,2,
R2426,gacharía,606,word,1,True,4,3.0788609981536865,2,
R2426,metías,607,word,2,True,4,1.2189440727233887,1,
R2426,luntirás,608,word,1,True,4,1.1424591541290283,2,
R2426,cetaremos,609,word,1,True,4,2.5563368797302246,2,
R2426,narraré,610,word,2,True,4,0.9058399200439453,1,
R2426,nadabas,611,word,2,True,4,1.5809221267700195,1,
R2426,besábamos,612,word,2,True,4,1.0009777545928955,1,
R2426,casarían,613,word,2,True,4,3.3770010471343994,1,
R2426,sufríamos,614,word,2,True,4,1.7988030910491943,1,
R2426,porerías,615,word,2,False,4,2.6540160179138184,2,
R2426,moncías,616,word,1,True,4,1.1917839050292969,2,
R2426,casabas,617,word,2,True,4,0.8650541305541992,1,
R2426,pavarían,618,word,1,True,4,1.5290460586547852,2,
R2426,someríamos,619,word,2,False,4,1.4299356937408447,2,
R2426,bailaban,620,word,2,True,4,0.8469009399414062,1,
R2426,quemaremos,621,word,2,True,4,2.1660141944885254,1,
R2426,barreríamos,622,word,2,True,4,2.8345561027526855,1,
R2426,partirá,623,word,2,True,4,1.6839759349822998,1,
R2426,maftaba,624,word,1,True,4,0.8859310150146484,2,
R2426,imías,625,word,1,True,5,1.7988231182098389,2,
R2426,rimábamos,626,word,2,True,5,3.2952139377593994,1,
R2426,cubrías,627,word,2,True,5,1.0928709506988525,1,
R2426,sauarán,628,word,1,True,5,1.2906570434570312,2,
R2426,arderán,629,word,2,True,5,1.469963788986206,1,
R2426,sauaría,630,word,1,True,5,1.0160350799560547,2,
R2426,poríamos,631,word,1,True,5,1.825929880142212,2,
R2426,obraríamos,632,word,2,True,5,2.335909128189087,1,
R2426,maftarán,633,word,1,True,5,1.497103214263916,2,
R2426,casarías,634,word,2,True,5,1.5230209827423096,1,
R2426,cumplirían,635,word,2,True,5,0.9413089752197266,1,
R2426,pavaría,636,word,1,True,5,3.614150285720825,2,
R2426,rondarás,637,word,2,True,5,1.0348701477050781,1,
R2426,rotabas,638,word,2,True,5,1.295738935470581,1,
R2426,arderías,639,word,2,True,5,1.1786739826202393,1,
R2426,sindaré,640,word,2,False,5,1.7229549884796143,2,
R2426,bruvías,641,word,1,True,5,1.5169262886047363,2,
R2426,moncía,642,word,1,True,5,1.0518481731414795,2,
R2426,charlará,643,word,2,True,5,0.8969821929931641,1,
R2426,cichiré,644,word,2,False,5,0.8159959316253662,2,
R2426,mardían,645,word,2,False,5,1.2140319347381592,2,
R2426,luntirías,646,word,1,True,5,1.4730567932128906,2,
R2426,meteríamos,647,word,2,True,5,3.1160929203033447,1,
R2426,lamería,648,word,2,True,5,1.139012098312378,1,
R2426,cortarías,649,word,2,True,5,2.008450984954834,1,
R2426,bruviríamos,650,word,1,True,5,0.9070141315460205,2,
R2426,gacharíamos,651,word,1,True,5,2.6100869178771973,2,
R2426,honderíamos,652,word,2,False,5,1.5351130962371826,2,
R2426,runarás,653,word,2,False,5,1.8038628101348877,2,
R2426,focarías,654,word,2,False,5,2.4579341411590576,2,
R2426,formaríamos,655,word,2,True,5,1.4830090999603271,1,
R2426,runaba,656,word,2,False,5,1.6261980533599854,2,
R2426,somíamos,657,word,2,False,5,1.7568597793579102,2,
R2426,sesía,658,word,2,False,5,1.339932918548584,2,
R2426,bailarás,659,word,2,True,5,1.5809319019317627,1,
R2426,cubríamos,660,word,2,True,5,1.2940301895141602,1,
R2426,corría,661,word,2,True,5,0.9268620014190674,1,
R2426,gruñíamos,662,word,2,True,5,1.9950692653656006,1,
R2426,cumplíamos,663,word,2,True,5,1.8399629592895508,1,
R2426,nadaremos,664,word,2,True,5,1.8221533298492432,1,
R2426,lailará,665,word,1,True,5,2.514995813369751,2,
R2426,mardirás,666,word,2,False,5,2.6801021099090576,2,
R2426,tuplirías,667,word,1,True,5,1.7117760181427002,2,
R2426,obraría,668,word,2,True,5,1.782120943069458,1,
R2426,lorgabas,669,word,2,False,5,1.378960132598877,2,
R2426,lachíamos,670,word,2,False,5,2.2208051681518555,2,
R2426,pactarías,671,word,1,False,5,2.9458770751953125,1,
R2426,rayaré,672,word,1,False,5,3.382017135620117,1,
R2426,faltarías,673,word,2,True,5,2.641838788986206,1,
R2426,narrarán,674,word,1,False,5,2.719024181365967,1,
R2426,vendían,675,word,2,True,5,2.976999044418335,1,
R2426,ritíamos,676,word,1,True,5,3.0060698986053467,2,
R2426,moncerías,677,word,2,False,5,1.822735071182251,2,
R2426,charlaremos,678,word,2,True,5,1.8961560726165771,1,
R2426,cumplirá,679,word,2,True,5,0.757910966873169,1,
R2426,cenarían,680,word,2,True,5,0.909005880355835,1,
R2426,coseremos,681,word,2,True,5,0.962090015411377,1,
R2426,zusabas,682,word,1,True,5,1.4051191806793213,2,
R2426,narrarás,683,word,2,True,5,1.007939100265503,1,
R2426,vendía,684,word,2,True,5,1.0561318397521973,1,
R2426,sufría,685,word,2,True,5,0.8459529876708984,1,
R2426,moncíamos,686,word,1,True,5,2.5841150283813477,2,
R2426,cubriré,687,word,2,True,5,0.9338960647583008,1,
R2426,burraría,688,word,1,True,5,3.277089834213257,2,
R2426,mertaríamos,689,word,1,True,5,5.281357049942017,2,
R2426,chanraban,690,word,2,False,5,2.066788911819458,2,
R2426,ceterás,691,word,2,False,5,2.1470839977264404,2,
R2426,cetaban,692,word,2,False,5,2.9621598720550537,2,
R2426,eplaré,693,word,1,True,5,1.8500421047210693,2,
R2426,ciperán,694,word,1,True,5,4.473119020462036,2,
R2426,maftaremos,695,word,1,True,5,1.3440227508544922,2,
R2426,quijabas,696,word,2,False,5,2.585064172744751,2,
R2426,lailarías,697,word,1,True,5,0.9480009078979492,2,
R2426,bruviremos,698,word,1,True,5,2.335010051727295,2,
R2426,toseré,699,word,2,True,5,1.5619237422943115,1,
R2426,focaríamos,700,word,2,False,5,1.6490650177001953,2,
R2426,obrarás,701,word,2,True,5,1.5486557483673096,1,
R2426,rondábamos,702,word,2,True,5,2.218104124069214,1,
R2426,temían,703,word,2,True,5,0.9889531135559082,1,
R2426,obrábamos,704,word,1,False,5,4.423094034194946,1,
R2426,sufrirá,705,word,2,True,5,1.5206949710845947,1,
R2426,cederías,706,word,2,True,5,2.3599820137023926,1,
R2426,fanería,707,word,2,False,5,1.2540481090545654,2,
R2426,frinderían,708,word,2,False,5,4.352088212966919,2,
R2426,vendería,709,word,2,True,5,0.8999249935150146,1,
R2426,rotaba,710,word,2,True,5,2.854064702987671,1,
R2426,formarías,711,word,2,True,5,0.842742919921875,1,
R2426,faneríamos,712,word,2,False,5,1.2529582977294922,2,
R2426,comeríamos,713,word,1,False,5,4.153064012527466,1,
R2426,zusarían,714,word,1,True,5,2.8747570514678955,2,
R2426,gacharán,715,word,2,False,5,3.769972085952759,2,
R2426,rotaban,716,word,2,True,5,1.3319828510284424,1,
R2426,cubrirías,717,word,2,True,5,1.315777063369751,1,
R2426,ciperíamos,718,word,2,False,5,5.272040843963623,2,
R2426,partirás,719,word,2,True,5,2.4260261058807373,1,
R2426,ardías,720,word,2,True,5,1.4440579414367676,1,
R2426,nadarías,721,word,1,False,5,3.0120489597320557,1,
R2426,juraremos,722,word,2,True,5,1.3179829120635986,1,
R2426,imíamos,723,word,1,True,5,1.9959611892700195,2,
R2426,besaré,724,word,2,True,5,1.0581390857696533,1,
R2426,faneremos,725,word,1,True,5,2.7540500164031982,2,
R2426,lucharíamos,726,word,2,True,5,1.2689368724822998,1,
R2426,vultará,727,word,2,False,5,2.8049049377441406,2,
R2426,nadábamos,728,word,1,False,5,1.6219139099121094,1,
R2426,quijaba,729,word,2,False,5,3.708124876022339,2,
R2426,runará,730,word,2,False,5,2.1700801849365234,2,
R2426,subiremos,731,word,2,True,5,2.036020040512085,1,
R2426,pactarás,732,word,2,True,5,3.2180747985839844,1,
R2426,meterían,733,word,2,True,5,2.128993034362793,1,
R2426,vultabas,734,word,2,False,5,2.0570621490478516,2,
R2426,pactaban,735,word,2,True,5,1.6609208583831787,1,
R2426,coseré,736,word,2,True,5,0.9270610809326172,1,
R2426,corríamos,737,word,2,True,5,0.9050559997558594,1,
R2426,retaba,738,word,2,True,5,1.4146208763122559,1,
R2426,obraban,739,word,2,True,5,2.1801371574401855,1,
R2426,burrará,740,word,2,False,5,0.9051001071929932,2,
R2426,rotarías,741,word,1,False,5,2.242143154144287,1,
R2426,cubría,742,word,2,True,5,0.9490108489990234,1,
R2426,lorgarás,743,word,2,False,5,0.9209067821502686,2,
R2426,honderá,744,word,2,False,5,2.220924139022827,2,
R2426,temías,745,word,1,False,5,1.7978780269622803,1,
R2426,pactaremos,746,word,2,True,5,1.5121359825134277,1,
R2426,jurarás,747,word,2,True,5,1.1160898208618164,1,
R2426,poreré,748,word,2,False,5,0.775925874710083,2,
R2426,charlabas,749,word,2,True,5,1.472203016281128,1,
R2426,ceteremos,750,word,2,False,5,2.6259849071502686,2,
R2426,lorgaría,751,word,2,False,5,0.849139928817749,2,
R2426,sumaban,752,word,2,True,5,1.1200459003448486,1,
R2426,imía,753,word,1,True,5,0.9571278095245361,2,
R2426,retaría,754,word,2,True,5,4.609123945236206,1,
R2426,cortará,755,word,2,True,5,1.1369211673736572,1,
R2426,cetará,756,word,2,False,5,2.1340150833129883,2,
R2426,chanrabas,757,word,1,True,5,1.6039848327636719,2,
R2426,sumaría,758,word,2,True,5,1.3310389518737793,1,
R2426,correré,759,word,2,True,5,0.8839848041534424,1,
R2426,anreremos,760,word,1,True,5,3.2628159523010254,2,
R2426,lameremos,761,word,1,False,5,1.9959909915924072,1,
R2426,luntían,762,word,1,True,5,2.304044246673584,2,
R2426,lailaremos,763,word,1,True,5,0.9639339447021484,2,
R2426,quijaremos,764,word,1,True,5,1.2660601139068604,2,
R2426,rondarías,765,word,2,True,5,1.2539989948272705,1,
R2426,focarán,766,word,2,False,5,1.3280909061431885,2,
R2426,besaban,767,word,2,True,5,1.2064509391784668,1,
R2426,morderé,768,word,2,True,5,0.9999899864196777,1,
R2426,rayarán,769,word,2,True,5,1.650094985961914,1,
R2426,luntía,770,word,2,False,5,1.280893087387085,2,
R2426,luchaban,771,word,2,True,5,2.9688069820404053,1,
R2426,formarán,772,word,2,True,5,1.3441059589385986,1,
R2426,tuplirían,773,word,1,True,5,1.2481060028076172,2,
R2426,gruñiríamos,774,word,2,True,5,0.9619688987731934,1,
R2426,casarán,775,word,2,True,5,1.110896110534668,1,
R2426,metería,776,word,2,True,5,0.7878961563110352,1,
R2426,mardirá,777,word,2,False,5,1.7829277515411377,2,
R2426,rimaré,778,word,1,False,5,1.7889480590820312,1,
R2426,casarás,779,word,2,True,5,1.0644018650054932,1,
R2426,ciperá,780,word,2,False,5,1.5369908809661865,2,
R2426,lailarían,781,word,1,True,6,1.864966869354248,2,
R2426,seserán,782,word,1,True,6,1.4730231761932373,2,
R2426,eplará,783,word,1,True,6,1.9399981498718262,2,
R2426,bruvirán,784,word,1,True,6,1.649169921875,2,
R2426,focaremos,785,word,2,False,6,0.8790090084075928,2,
R2426,casaré,786,word,2,True,6,1.0110588073730469,1,
R2426,fanías,787,word,1,True,6,1.4538319110870361,2,
R2426,besarías,788,word,2,True,6,1.0250470638275146,1,
R2426,besarían,789,word,2,True,6,0.7609212398529053,1,
R2426,vultaríamos,790,word,2,False,6,1.1239826679229736,2,
R2426,bruvían,791,word,2,False,6,1.2668790817260742,2,
R2426,cetaré,792,word,1,True,6,1.5881738662719727,2,
R2426,cisaba,793,word,1,True,6,1.5759458541870117,2,
R2426,gacharemos,794,word,1,True,6,1.2339508533477783,2,
R2426,anría,795,word,1,True,6,3.306000232696533,2,
R2426,cenaríamos,796,word,2,True,6,1.9650239944458008,1,
R2426,correrá,797,word,2,True,6,1.9340510368347168,1,
R2426,retarán,798,word,2,True,6,2.91585111618042,1,
R2426,galarías,799,word,2,False,6,1.3948919773101807,2,
R2426,gruñiré,800,word,2,True,6,1.3067257404327393,1,
R2426,lacherías,801,word,2,False,6,1.9509270191192627,2,
R2426,mertaría,802,word,2,False,6,2.6111350059509277,2,
R2426,frinderíamos,803,word,1,True,6,1.7109580039978027,2,
R2426,quemaríamos,804,word,2,True,6,1.2893929481506348,1,
R2426,mardirían,805,word,2,False,6,2.8090760707855225,2,
R2426,toseremos,806,word,2,True,6,1.308943748474121,1,
R2426,cipía,807,word,2,False,6,1.1342878341674805,2,
R2426,moncería,808,word,2,False,6,2.2422373294830322,2,
R2426,jurarán,809,word,2,True,6,1.0973570346832275,1,
R2426,focaría,810,word,2,False,6,1.1084129810333252,2,
R2426,tujiríamos,811,word,2,False,6,1.5911507606506348,2,
R2426,maftarían,812,word,1,True,6,0.9043500423431396,2,
R2426,temerían,813,word,2,True,6,1.2330973148345947,1,
R2426,sufrías,814,word,2,True,6,0.9007840156555176,1,
R2426,cichiría,815,word,1,True,6,2.0443170070648193,2,
R2426,bailaré,816,word,2,True,6,0.837277889251709,1,
R2426,cisábamos,817,word,1,True,6,2.3259568214416504,2,
R2426,zusarán,818,word,2,False,6,1.9832229614257812,2,
R2426,burrarán,819,word,2,False,6,1.6139459609985352,2,
R2426,correríamos,820,word,2,True,6,1.215040922164917,1,
R2426,barrerás,821,word,2,True,6,1.1234259605407715,1,
R2426,meterás,822,word,2,True,6,0.9376068115234375,1,
R2426,ceteríamos,823,word,1,True,6,2.4839508533477783,2,
R2426,metían,824,word,2,True,6,1.180016279220581,1,
R2426,nadará,825,word,2,True,6,0.9420211315155029,1,
R2426,eplábamos,826,word,1,True,6,2.8541247844696045,2,
R2426,frinderé,827,word,2,False,6,1.4242520332336426,2,
R2426,luntiríamos,828,word,1,True,6,2.401031970977783,2,
R2426,morderíamos,829,word,2,True,6,1.6850230693817139,1,
R2426,unirá,830,word,2,True,6,0.8110501766204834,1,
R2426,mertarás,831,word,2,False,6,2.7529351711273193,2,
R2426,tupliría,832,word,2,False,6,1.152998924255371,2,
R2426,zusábamos,833,word,1,True,6,1.7714760303497314,2,
R2426,chanraría,834,word,1,True,6,2.336926221847534,2,
R2426,bailaremos,835,word,2,True,6,0.678983211517334,1,
R2426,bruvirías,836,word,1,True,6,1.355086088180542,2,
R2426,sesíamos,837,word,1,True,6,1.5649759769439697,2,
R2426,mordería,838,word,2,True,6,1.1120336055755615,1,
R2426,vultarías,839,word,2,False,6,2.7109761238098145,2,
R2426,poreríamos,840,word,2,False,6,1.308426856994629,2,
R2426,cuarriríamos,841,word,1,True,6,2.2116200923919678,2,
R2426,ceflerás,842,word,1,True,6,1.6430120468139648,2,
R2426,cortaremos,843,word,2,True,6,1.4939980506896973,1,
R2426,gruñías,844,word,2,True,6,0.9808921813964844,1,
R2426,fundirías,845,word,1,False,6,2.113013982772827,1,
R2426,galaremos,846,word,2,False,6,3.2203729152679443,2,
R2426,unías,847,word,2,True,6,0.7870361804962158,1,
R2426,formabas,848,word,2,True,6,2.3379299640655518,1,
R2426,rotarán,849,word,2,True,6,0.9660069942474365,1,
R2426,vultaban,850,word,2,False,6,0.9750001430511475,2,
R2426,barreremos,851,word,2,True,6,0.9790439605712891,1,
R2426,meterías,852,word,2,True,6,1.4739289283752441,1,
R2426,subían,853,word,2,True,6,1.1608588695526123,1,
R2426,rimarás,854,word,1,False,6,1.4818978309631348,1,
R2426,eplaremos,855,word,2,False,6,1.8751208782196045,2,
R2426,cenaba,856,word,2,True,6,0.8668539524078369,1,
R2426,rayaremos,857,word,2,True,6,0.9879319667816162,1,
R2426,arderían,858,word,2,True,6,3.066927194595337,1,
R2426,maftaré,859,word,1,True,6,0.9219057559967041,2,
R2426,lamerás,860,word,1,False,6,2.577960252761841,1,
R2426,meterán,861,word,2,True,6,3.3341619968414307,1,
R2426,bimaba,862,word,1,True,6,4.882174968719482,2,
R2426,tujían,863,word,1,True,6,2.2218668460845947,2,
R2426,temíamos,864,word,2,True,6,2.008955955505371,1,
R2426,cederemos,865,word,2,True,6,2.0839481353759766,1,
R2426,bimaríamos,866,word,1,True,6,1.7259941101074219,2,
R2426,sindabas,867,word,1,True,6,6.642333030700684,2,
R2426,tuplirá,868,word,1,True,6,0.9577980041503906,2,
R2426,venderá,869,word,2,True,6,3.334023952484131,1,
R2426,mordías,870,word,2,True,6,0.8849458694458008,1,
R2426,mardiré,871,word,2,False,6,1.4770159721374512,2,
R2426,toserán,872,word,2,True,6,1.8528969287872314,1,
R2426,charlarán,873,word,2,True,6,1.4409818649291992,1,
R2426,ardíamos,874,word,2,True,6,2.060106039047241,1,
R2426,burrarían,875,word,1,True,6,3.4078660011291504,2,
R2426,galarían,876,word,2,False,6,1.1391119956970215,2,
R2426,bruviré,877,word,1,True,6,1.2788958549499512,2,
R2426,rimaría,878,word,1,False,6,2.700965166091919,1,
R2426,quemabas,879,word,2,True,6,1.469785213470459,1,
R2426,faltarán,880,word,2,True,6,0.9899580478668213,1,
R2426,rotaré,881,word,2,True,6,0.8778538703918457,1,
R2426,morderían,882,word,2,True,6,1.4197580814361572,1,
R2426,luntiría,883,word,1,True,6,1.7590057849884033,2,
R2426,cichirán,884,word,2,False,6,1.3079800605773926,2,
R2426,ceteré,885,word,1,True,6,1.829056978225708,2,
R2426,sauaré,886,word,1,True,6,1.1531426906585693,2,
R2426,partíamos,887,word,1,False,6,2.159909963607788,1,
R2426,vultarán,888,word,2,False,6,2.121011972427368,2,
R2426,tujiremos,889,word,1,True,6,2.302931070327759,2,
R2426,faltaban,890,word,2,True,6,1.0008599758148193,1,
R2426,moncían,891,word,2,False,6,1.9080820083618164,2,
R2426,comía,892,word,2,True,6,0.8190479278564453,1,
R2426,cuarría,893,word,1,True,6,1.4120051860809326,2,
R2426,cumplías,894,word,2,True,6,0.8070330619812012,1,
R2426,mardiría,895,word,1,True,6,1.391071081161499,2,
R2426,ceflerán,896,word,1,True,6,1.5890729427337646,2,
R2426,burrabas,897,word,1,True,6,1.3967208862304688,2,
R2426,cetaría,898,word,1,True,6,1.4140419960021973,2,
R2426,partirías,899,word,2,True,6,1.4209458827972412,1,
R2426,bigarás,900,word,1,True,6,1.5360379219055176,2,
R2426,tuplirás,901,word,1,True,6,0.9490189552307129,2,
R2426,bailabas,902,word,2,True,6,0.8509130477905273,1,
R2426,casaremos,903,word,2,True,6,0.9332952499389648,1,
R2426,lorgarían,904,word,2,False,6,1.2069308757781982,2,
R2426,coserás,905,word,2,True,6,1.0239169597625732,1,
R2426,venderíamos,906,word,2,True,6,1.0679149627685547,1,
R2426,luchaba,907,word,2,True,6,1.4719688892364502,1,
R2426,tujirías,908,word,2,False,6,4.397907018661499,2,
R2426,hondían,909,word,1,True,6,0.9940316677093506,2,
R2426,barrerán,910,word,2,True,6,1.0579249858856201,1,
R2426,comerás,911,word,2,True,6,0.8829209804534912,1,
R2426,vultaría,912,word,1,True,6,4.161987781524658,2,
R2426,cortarás,913,word,2,True,6,0.9349560737609863,1,
R2426,correría,914,word,2,True,6,0.8308720588684082,1,
R2426,cubriríamos,915,word,1,False,6,3.385054111480713,1,
R2426,morderá,916,word,2,True,6,3.462947130203247,1,
R2426,cuarrirían,917,word,1,True,6,1.2121100425720215,2,
R2426,lameríamos,918,word,1,False,6,1.5089240074157715,1,
R2426,eplaba,919,word,1,True,6,0.8090701103210449,2,
R2426,morderemos,920,word,2,True,6,0.8450219631195068,1,
R2426,ceflería,921,word,2,False,6,2.7751450538635254,2,
R2426,ceterá,922,word,2,False,6,1.5601541996002197,2,
R2426,gruñirías,923,word,2,True,6,0.9599888324737549,1,
R2426,monceríamos,924,word,1,True,6,0.9590048789978027,2,
R2426,honderán,925,word,1,True,6,1.2279629707336426,2,
R2426,sufrirían,926,word,2,True,6,1.9358420372009277,1,
R2426,lucharía,927,word,2,True,6,1.030104160308838,1,
R2426,somían,928,word,2,False,6,0.8369312286376953,2,
R2426,narraríamos,929,word,2,True,6,1.2091028690338135,1,
R2426,sauarás,930,word,1,True,6,1.2621541023254395,2,
R2426,cedías,931,word,1,False,6,1.4804658889770508,1,
R2426,formaba,932,word,2,True,6,1.014125108718872,1,
R2426,cederé,933,word,2,True,6,3.9502811431884766,1,
R2426,cederás,934,word,2,True,6,2.1959731578826904,1,
R2426,cefleremos,935,word,1,True,6,2.207095146179199,2,
R2426,mordíamos,936,word,2,True,6,1.7859699726104736,1,
R2426,luntíamos,937,word,1,True,7,1.509054183959961,2,
R2426,rotarás,938,word,2,True,7,1.2299308776855469,1,
R2426,arderemos,939,word,2,True,7,1.4079937934875488,1,
R2426,lucharás,940,word,2,True,7,0.8610489368438721,1,
R2426,nadaban,941,word,2,True,7,0.7482869625091553,1,
R2426,ciperé,942,word,2,False,7,1.1269829273223877,2,
R2426,prenderemos,943,word,2,True,7,1.9119670391082764,1,
R2426,mardirán,944,word,2,False,7,1.539992094039917,2,
R2426,eplarían,945,word,1,True,7,1.2900710105895996,2,
R2426,rotarían,946,word,2,True,7,0.827995777130127,1,
R2426,bimaban,947,word,1,True,7,1.9844670295715332,2,
R2426,uniría,948,word,2,True,7,0.8529043197631836,1,
R2426,lamía,949,word,2,True,7,0.7838690280914307,1,
R2426,fanerá,950,word,2,False,7,1.3350679874420166,2,
R2426,casará,951,word,2,True,7,0.744102954864502,1,
R2426,somerían,952,word,2,False,7,1.0249619483947754,2,
R2426,pavaba,953,word,1,True,7,1.0644361972808838,2,
R2426,comerían,954,word,2,True,7,0.6379349231719971,1,
R2426,chanraremos,955,word,2,False,7,1.9770967960357666,2,
R2426,eplaríamos,956,word,1,True,7,0.9938578605651855,2,
R2426,maftarías,957,word,1,True,7,0.9140143394470215,2,
R2426,pactaríamos,958,word,2,True,7,2.57600998878479,1,
R2426,moncerán,959,word,2,False,7,1.4278380870819092,2,
R2426,cisarían,960,word,2,False,7,1.792119026184082,2,
R2426,fundía,961,word,2,True,7,1.7838830947875977,1,
R2426,venderían,962,word,2,True,7,0.9429690837860107,1,
R2426,zusaríamos,963,word,2,False,7,2.211017370223999,2,
R2426,cumpliríamos,964,word,2,True,7,2.097053050994873,1,
R2426,subiré,965,word,2,True,7,1.0035860538482666,1,
R2426,runarían,966,word,2,False,7,1.2690088748931885,2,
R2426,mertarían,967,word,2,False,7,2.4151499271392822,2,
R2426,ceflerías,968,word,1,True,7,2.3769371509552,2,
R2426,cederíamos,969,word,2,True,7,2.30076003074646,1,
R2426,arderá,970,word,2,True,7,1.331003189086914,1,
R2426,bigarán,971,word,1,True,7,1.2569019794464111,2,
R2426,rayarás,972,word,2,True,7,0.7869758605957031,1,
R2426,lailarán,973,word,1,True,7,2.7370598316192627,2,
R2426,temeríamos,974,word,1,False,7,1.8938288688659668,1,
R2426,anrerá,975,word,1,True,7,1.8958940505981445,2,
R2426,cumplía,976,word,2,True,7,0.8057458400726318,1,
R2426,imirá,977,word,2,False,7,1.68890380859375,2,
R2426,retabas,978,word,1,False,7,1.143984317779541,1,
R2426,cichirías,979,word,1,True,7,0.8820111751556396,2,
R2426,tujirás,980,word,2,False,7,1.2599818706512451,2,
R2426,lucharán,981,word,2,True,7,0.8120388984680176,1,
R2426,vultaremos,982,word,1,True,7,1.778764009475708,2,
R2426,lachías,983,word,1,True,7,1.4960219860076904,2,
R2426,moncerá,984,word,1,True,7,1.3099591732025146,2,
R2426,zusaremos,985,word,2,False,7,1.2657747268676758,2,
R2426,bimará,986,word,1,True,7,2.027959108352661,2,
R2426,gachaban,987,word,2,False,7,2.1110410690307617,2,
R2426,cenaremos,988,word,2,True,7,0.9339911937713623,1,
R2426,chanrará,989,word,2,False,7,1.3199408054351807,2,
R2426,eplaban,990,word,1,True,7,0.9400408267974854,2,
R2426,cederá,991,word,2,True,7,0.9779300689697266,1,
R2426,ardería,992,word,2,True,7,1.6419179439544678,1,
R2426,cumpliría,993,word,2,True,7,2.765989065170288,1,
R2426,cedíamos,994,word,1,False,7,2.7090392112731934,1,
R2426,ceflerá,995,word,1,True,7,1.3220067024230957,2,
R2426,cipías,996,word,1,True,7,0.9489991664886475,2,
R2426,correremos,997,word,2,True,7,1.1310620307922363,1,
R2426,subirías,998,word,2,True,7,1.963878870010376,1,
R2426,cichían,999,word,2,False,7,2.149955987930298,2,
R2426,bruvirían,1000,word,1,True,7,0.9849069118499756,2,
R2426,porería,1001,word,2,False,7,1.5901257991790771,2,
R2426,sindarías,1002,word,1,True,7,1.4099419116973877,2,
R2426,tuplíamos,1003,word,2,False,7,1.6569790840148926,2,
R2426,imiría,1004,word,1,True,7,2.159008026123047,2,
R2426,subirían,1005,word,2,True,7,1.11411714553833,1,
R2426,frindías,1006,word,1,True,7,1.802008867263794,2,
R2426,sauaremos,1007,word,1,True,7,0.9539797306060791,2,
R2426,cichirás,1008,word,2,False,7,2.142911911010742,2,
R2426,narraría,1009,word,2,True,7,0.8967738151550293,1,
R2426,rondaríamos,1010,word,2,True,7,0.9199550151824951,1,
R2426,anrerás,1011,word,1,True,7,1.679927110671997,2,
R2426,galarás,1012,word,2,False,7,1.4825661182403564,2,
R2426,bruvirá,1013,word,2,False,7,2.5550572872161865,2,
R2426,toserás,1014,word,2,True,7,0.919090986251831,1,
R2426,formaría,1015,word,2,True,7,1.367096185684204,1,
R2426,cetías,1016,word,1,True,7,1.739008903503418,2,
R2426,bailaría,1017,word,2,True,7,0.9239959716796875,1,
R2426,seseré,1018,word,1,True,7,1.1549460887908936,2,
R2426,temerás,1019,word,2,True,7,1.2229149341583252,1,
R2426,lailaré,1020,word,1,True,7,1.6868188381195068,2,
R2426,somerá,1021,word,2,False,7,1.028925895690918,2,
R2426,tupliríamos,1022,word,1,True,7,0.8636670112609863,2,
R2426,jurarías,1023,word,2,True,7,4.171036958694458,1,
R2426,corrías,1024,word,2,True,7,0.6929671764373779,1,
R2426,rayarías,1025,word,2,True,7,1.077233076095581,1,
R2426,cosía,1026,word,2,True,7,2.2981200218200684,1,
R2426,charlarías,1027,word,2,True,7,0.979388952255249,1,
R2426,porerás,1028,word,2,False,7,1.81666898727417,2,
R2426,sauarías,1029,word,1,True,7,0.8929381370544434,2,
R2426,rotábamos,1030,word,1,False,7,1.6268138885498047,1,
R2426,cumplían,1031,word,2,True,7,1.0079560279846191,1,
R2426,bigaré,1032,word,1,True,7,0.9174752235412598,2,
R2426,gacharías,1033,word,2,False,7,1.4600200653076172,2,
R2426,zusaba,1034,word,2,False,7,1.0749938488006592,2,
R2426,ritías,1035,word,2,False,7,1.6158921718597412,2,
R2426,pactará,1036,word,2,True,7,1.483008861541748,1,
R2426,ciperás,1037,word,1,True,7,2.215027093887329,2,
R2426,burraríamos,1038,word,1,True,7,1.9430079460144043,2,
R2426,ceterían,1039,word,1,True,7,1.038957118988037,2,
R2426,fanía,1040,word,1,True,7,0.8138611316680908,2,
R2426,narraban,1041,word,2,True,7,0.8679699897766113,1,
R2426,faltabas,1042,word,2,True,7,0.6800839900970459,1,
R2426,venderemos,1043,word,1,False,7,1.7807769775390625,1,
R2426,gruñirás,1044,word,2,True,7,0.8510961532592773,1,
R2426,juraba,1045,word,2,True,7,0.837907075881958,1,
R2426,cisaban,1046,word,1,True,7,1.3282411098480225,2,
R2426,ardían,1047,word,2,True,7,0.8020029067993164,1,
R2426,vultarían,1048,word,1,True,7,1.9300339221954346,2,
R2426,monceremos,1049,word,2,False,7,2.3260080814361572,2,
R2426,bruvíamos,1050,word,1,True,7,1.0518910884857178,2,
R2426,bigarías,1051,word,2,False,7,1.9790892601013184,2,
R2426,seseríamos,1052,word,1,True,7,1.5059709548950195,2,
R2426,hondía,1053,word,2,False,7,1.7390170097351074,2,
R2426,ceterías,1054,word,2,False,7,2.34601092338562,2,
R2426,anrerían,1055,word,2,False,7,1.2131259441375732,2,
R2426,fundirá,1056,word,1,False,7,1.678330898284912,1,
R2426,bruvía,1057,word,2,False,7,2.1709818840026855,2,
R2426,riteré,1058,word,2,False,7,1.3789739608764648,2,
R2426,nadarán,1059,word,2,True,7,0.9119076728820801,1,
R2426,cisaríamos,1060,word,2,False,7,0.9157030582427979,2,
R2426,obraba,1061,word,2,True,7,1.1349170207977295,1,
R2426,zusarías,1062,word,2,False,7,1.4559531211853027,2,
R2426,runaría,1063,word,2,False,7,1.9331092834472656,2,
R2426,ceflían,1064,word,1,True,7,0.9330530166625977,2,
R2426,bailarías,1065,word,2,True,7,1.8248729705810547,1,
R2426,cisabas,1066,word,1,True,7,0.974174976348877,2,
R2426,galará,1067,word,2,False,7,0.8469390869140625,2,
R2426,sumarás,1068,word,2,True,7,0.6978940963745117,1,
R2426,imían,1069,word,1,True,7,1.0649092197418213,2,
R2426,retaban,1070,word,2,True,7,1.7190029621124268,1,
R2426,quemarías,1071,word,2,True,7,0.9555659294128418,1,
R2426,besabas,1072,word,2,True,7,0.7840368747711182,1,
R2426,temía,1073,word,1,False,7,1.7559900283813477,1,
R2426,gruñirá,1074,word,2,True,7,0.7350432872772217,1,
R2426,bimarían,1075,word,1,True,7,1.116001844406128,2,
R2426,unían,1076,word,2,True,7,0.7869160175323486,1,
R2426,porerá,1077,word,2,False,7,0.8840169906616211,2,
R2426,pavabas,1078,word,1,True,7,1.049483060836792,2,
R2426,barríamos,1079,word,2,True,7,1.5750689506530762,1,
R2426,imirán,1080,word,1,True,7,0.9249899387359619,2,
R2426,jurábamos,1081,word,2,True,7,1.4250538349151611,1,
R2426,vendíamos,1082,word,2,True,7,1.587177038192749,1,
R2426,cipería,1083,word,2,False,7,2.700930118560791,2,
R2426,besará,1084,word,2,True,7,0.6702520847320557,1,
R2426,lucharé,1085,word,2,True,7,1.1129260063171387,1,
R2426,cubrirás,1086,word,2,True,7,2.384000062942505,1,
R2426,quijarán,1087,word,2,False,7,1.8869688510894775,2,
R2426,lacheré,1088,word,2,False,7,0.7271292209625244,2,
R2426,obrará,1089,word,2,True,7,0.8100810050964355,1,
R2426,luntirá,1090,word,1,True,7,1.0590732097625732,2,
R2426,nadaba,1091,word,2,True,7,0.6839327812194824,1,
R2426,sindábamos,1092,word,2,False,7,2.5979597568511963,2,
