participant,stimuli,trialNum,target_type,response,correct,block,reaction_time,trigger,
R2427,luchabas,1,word,2,True,1,1.2832238674163818,1,
R2427,cortará,2,word,2,True,1,1.6315126419067383,1,
R2427,someríamos,3,word,1,True,1,1.0661332607269287,2,
R2427,quijaremos,4,word,1,True,1,1.1743872165679932,2,
R2427,honderemos,5,word,1,True,1,1.1070311069488525,2,
R2427,bimarías,6,word,1,True,1,0.7961311340332031,2,
R2427,zusarían,7,word,2,False,1,0.9110519886016846,2,
R2427,morderemos,8,word,2,True,1,0.8561069965362549,1,
R2427,sufrirías,9,word,2,True,1,1.0500211715698242,1,
R2427,rimarías,10,word,2,True,1,0.9877908229827881,1,
R2427,besaban,11,word,2,True,1,0.7790448665618896,1,
R2427,pactábamos,12,word,2,True,1,1.2949228286743164,1,
R2427,rimaríamos,13,word,2,True,1,1.03904390335083,1,
R2427,charlaban,14,word,2,True,1,0.756976842880249,1,
R2427,vultaríamos,15,word,1,True,1,0.8710269927978516,2,
R2427,lorgarás,16,word,2,False,1,0.8242340087890625,2,
R2427,zusaban,17,word,1,True,1,0.7368559837341309,2,
R2427,eplarías,18,word,1,True,1,1.0808701515197754,2,
R2427,fundiremos,19,word,1,False,1,1.765091896057129,1,
R2427,zusaba,20,word,1,True,1,0.8189737796783447,2,
R2427,ritía,21,word,1,True,1,0.6791338920593262,2,
R2427,cuarrirían,22,word,1,True,1,0.7759251594543457,2,
R2427,fanerían,23,word,1,True,1,0.7827749252319336,2,
R2427,casará,24,word,2,True,1,0.7729971408843994,1,
R2427,arderán,25,word,2,True,1,0.8000528812408447,1,
R2427,juraremos,26,word,2,True,1,1.5490131378173828,1,
R2427,lameré,27,word,2,True,1,0.9419138431549072,1,
R2427,bimaríamos,28,word,1,True,1,0.6880538463592529,2,
R2427,lailaremos,29,word,1,True,1,0.9479770660400391,2,
R2427,tuplías,30,word,1,True,1,1.019139051437378,2,
R2427,arderían,31,word,2,True,1,0.8149187564849854,1,
R2427,obraba,32,word,2,True,1,0.9868080615997314,1,
R2427,lorgaríamos,33,word,2,False,1,0.7148900032043457,2,
R2427,sumabas,34,word,1,False,1,0.8450980186462402,1,
R2427,retaban,35,word,2,True,1,0.6805617809295654,1,
R2427,correremos,36,word,2,True,1,0.7229819297790527,1,
R2427,formará,37,word,2,True,1,0.7629759311676025,1,
R2427,partirán,38,word,2,True,1,0.986041784286499,1,
R2427,lailabas,39,word,1,True,1,1.0448758602142334,2,
R2427,lamerán,40,word,2,True,1,0.8290541172027588,1,
R2427,toserán,41,word,2,True,1,0.679006814956665,1,
R2427,corrían,42,word,2,True,1,0.6589739322662354,1,
R2427,maftaremos,43,word,1,True,1,0.9170129299163818,2,
R2427,juraban,44,word,2,True,1,0.7348809242248535,1,
R2427,eplabas,45,word,1,True,1,0.7562801837921143,2,
R2427,riterían,46,word,1,True,1,0.9120922088623047,2,
R2427,lamía,47,word,2,True,1,0.6419229507446289,1,
R2427,lorgarán,48,word,2,False,1,0.6669590473175049,2,
R2427,sauaremos,49,word,1,True,1,0.7518436908721924,2,
R2427,coserás,50,word,2,True,1,0.8681011199951172,1,
R2427,morderíamos,51,word,2,True,1,0.9039139747619629,1,
R2427,coserían,52,word,2,True,1,0.8730361461639404,1,
R2427,cubriría,53,word,2,True,1,1.0620648860931396,1,
R2427,imirás,54,word,1,True,1,1.0269618034362793,2,
R2427,gachaban,55,word,1,True,1,0.8109431266784668,2,
R2427,mardiré,56,word,1,True,1,0.977060079574585,2,
R2427,honderá,57,word,1,True,1,1.097843885421753,2,
R2427,eplaríamos,58,word,1,True,1,1.3397870063781738,2,
R2427,juraría,59,word,2,True,1,0.9481170177459717,1,
R2427,lacherían,60,word,1,True,1,1.094759225845337,2,
R2427,frindía,61,word,1,True,1,1.0999701023101807,2,
R2427,vultaremos,62,word,1,True,1,1.0739870071411133,2,
R2427,vultábamos,63,word,1,True,1,1.014997959136963,2,
R2427,rotaría,64,word,2,True,1,0.9471158981323242,1,
R2427,chanrarían,65,word,1,True,1,0.9988389015197754,2,
R2427,morderé,66,word,2,True,1,0.7981150150299072,1,
R2427,meterás,67,word,2,True,1,0.8010663986206055,1,
R2427,toserá,68,word,2,True,1,0.709967851638794,1,
R2427,porerán,69,word,1,True,1,0.8380191326141357,2,
R2427,cuarrían,70,word,1,True,1,1.0688188076019287,2,
R2427,cisarás,71,word,1,True,1,0.7020218372344971,2,
R2427,bailaremos,72,word,2,True,1,0.7617950439453125,1,
R2427,fundirían,73,word,1,False,1,2.009868860244751,1,
R2427,cefleremos,74,word,1,True,1,1.0721280574798584,2,
R2427,casaban,75,word,2,True,1,0.7580270767211914,1,
R2427,cichirías,76,word,1,True,1,0.8298969268798828,2,
R2427,bigará,77,word,2,False,1,0.6730318069458008,2,
R2427,luntiríamos,78,word,1,True,1,1.376143217086792,2,
R2427,arderás,79,word,2,True,1,0.9269180297851562,1,
R2427,besarán,80,word,2,True,1,0.7600889205932617,1,
R2427,cederemos,81,word,1,False,1,0.8689210414886475,1,
R2427,cichirán,82,word,1,True,1,1.1211268901824951,2,
R2427,frinderían,83,word,1,True,1,1.366995096206665,2,
R2427,partías,84,word,2,True,1,1.1012659072875977,1,
R2427,cichirás,85,word,1,True,1,0.7009367942810059,2,
R2427,cisaban,86,word,2,False,1,1.0300559997558594,2,
R2427,tujiríamos,87,word,1,True,1,1.0557823181152344,2,
R2427,imirían,88,word,1,True,1,1.178009033203125,2,
R2427,bailábamos,89,word,2,True,1,0.6890361309051514,1,
R2427,rimábamos,90,word,2,True,1,0.7200419902801514,1,
R2427,ciperías,91,word,1,True,1,0.7550458908081055,2,
R2427,nadarás,92,word,2,True,1,1.142853021621704,1,
R2427,quemaré,93,word,2,True,1,0.7861330509185791,1,
R2427,ceflerías,94,word,1,True,1,0.9099791049957275,2,
R2427,runaremos,95,word,1,True,1,0.8320341110229492,2,
R2427,prenderás,96,word,2,True,1,0.8379819393157959,1,
R2427,quijarán,97,word,1,True,1,1.207991123199463,2,
R2427,cisabas,98,word,2,False,1,0.8779299259185791,2,
R2427,pactaría,99,word,2,True,1,0.9101986885070801,1,
R2427,chanrará,100,word,1,True,1,0.7929253578186035,2,
R2427,casabas,101,word,2,True,1,0.7772219181060791,1,
R2427,bimaré,102,word,1,True,1,0.7669970989227295,2,
R2427,cortarías,103,word,2,True,1,1.028965950012207,1,
R2427,galarás,104,word,1,True,1,1.0258581638336182,2,
R2427,rayarías,105,word,1,False,1,1.1958887577056885,1,
R2427,eplarían,106,word,1,True,1,0.8120677471160889,2,
R2427,temeríamos,107,word,2,True,1,0.9006409645080566,1,
R2427,lorgaban,108,word,1,True,1,1.4499239921569824,2,
R2427,barrería,109,word,1,False,1,0.9201347827911377,1,
R2427,cumpliremos,110,word,2,True,1,0.8690712451934814,1,
R2427,frinderemos,111,word,1,True,1,1.1909666061401367,2,
R2427,vultarán,112,word,1,True,1,1.0859105587005615,2,
R2427,lamían,113,word,2,True,1,0.7580790519714355,1,
R2427,cetarías,114,word,1,True,1,0.7619707584381104,2,
R2427,vultarías,115,word,1,True,1,0.8260519504547119,2,
R2427,runará,116,word,1,True,1,0.6670339107513428,2,
R2427,retaríamos,117,word,2,True,1,1.288789987564087,1,
R2427,mertabas,118,word,1,True,1,0.9329221248626709,2,
R2427,fanerán,119,word,1,True,1,1.0778591632843018,2,
R2427,gruñías,120,word,2,True,1,0.8808228969573975,1,
R2427,zusaremos,121,word,1,True,1,1.0160582065582275,2,
R2427,lorgaré,122,word,2,False,1,1.0089902877807617,2,
R2427,comeré,123,word,2,True,1,0.6619281768798828,1,
R2427,retarían,124,word,2,True,1,1.0829429626464844,1,
R2427,sindaría,125,word,1,True,1,0.7959198951721191,2,
R2427,meterían,126,word,2,True,1,0.7899041175842285,1,
R2427,burraban,127,word,1,True,1,3.3941519260406494,2,
R2427,poríamos,128,word,1,True,1,0.9059326648712158,2,
R2427,sumaría,129,word,2,True,1,0.9737391471862793,1,
R2427,imirá,130,word,1,True,1,1.0828831195831299,2,
R2427,pavaría,131,word,1,True,1,0.8657240867614746,2,
R2427,nadaré,132,word,2,True,1,0.716494083404541,1,
R2427,sumaban,133,word,2,True,1,0.7170751094818115,1,
R2427,galaría,134,word,1,True,1,1.4279868602752686,2,
R2427,rimaba,135,word,2,True,1,0.7809138298034668,1,
R2427,prendíamos,136,word,2,True,1,2.450136661529541,1,
R2427,juraríamos,137,word,2,True,1,0.9480271339416504,1,
R2427,charlarán,138,word,1,False,1,0.8191590309143066,1,
R2427,bailaría,139,word,2,True,1,1.277890682220459,1,
R2427,obrarían,140,word,1,False,1,1.425785779953003,1,
R2427,gruñiría,141,word,2,True,1,1.2491397857666016,1,
R2427,fundiría,142,word,1,False,1,0.9410219192504883,1,
R2427,cetaban,143,word,1,True,1,0.6609199047088623,2,
R2427,galará,144,word,1,True,1,0.8568620681762695,2,
R2427,gruñirás,145,word,2,True,1,0.9219090938568115,1,
R2427,faltarás,146,word,2,True,1,2.05106782913208,1,
R2427,formaríamos,147,word,2,True,1,1.687047004699707,1,
R2427,quemaba,148,word,2,True,1,0.978874921798706,1,
R2427,quemarás,149,word,2,True,1,0.8558831214904785,1,
R2427,cisaría,150,word,1,True,1,1.433074951171875,2,
R2427,sindabas,151,word,1,True,1,1.0390310287475586,2,
R2427,sauarán,152,word,1,True,1,1.2527599334716797,2,
R2427,subiría,153,word,2,True,1,1.7451138496398926,1,
R2427,mertaban,154,word,1,True,1,1.1129810810089111,2,
R2427,anríamos,155,word,1,True,1,1.6921210289001465,2,
R2427,correré,156,word,2,True,1,0.7298927307128906,1,
R2427,rayaremos,157,word,2,True,2,2.970968246459961,1,
R2427,vendía,158,word,2,True,2,0.7447941303253174,1,
R2427,partiremos,159,word,2,True,2,1.1290333271026611,1,
R2427,temíamos,160,word,2,True,2,1.186931848526001,1,
R2427,gachará,161,word,1,True,2,0.9899482727050781,2,
R2427,cetería,162,word,1,True,2,1.0060770511627197,2,
R2427,frinderé,163,word,1,True,2,1.2338800430297852,2,
R2427,mertarán,164,word,1,True,2,0.9390051364898682,2,
R2427,cenarás,165,word,2,True,2,1.214920997619629,1,
R2427,retaría,166,word,2,True,2,1.1798992156982422,1,
R2427,mardían,167,word,1,True,2,1.0888030529022217,2,
R2427,cederán,168,word,2,True,2,1.1350760459899902,1,
R2427,metería,169,word,2,True,2,0.9240469932556152,1,
R2427,moncía,170,word,1,True,2,1.028012990951538,2,
R2427,mertaríamos,171,word,1,True,2,1.278069019317627,2,
R2427,mertaría,172,word,1,True,2,0.976963996887207,2,
R2427,bimabas,173,word,1,True,2,1.076817274093628,2,
R2427,faneríamos,174,word,1,True,2,0.9939701557159424,2,
R2427,seserás,175,word,2,False,2,1.1829850673675537,2,
R2427,anrerían,176,word,1,True,2,1.1030819416046143,2,
R2427,gacharán,177,word,1,True,2,1.2671129703521729,2,
R2427,retabas,178,word,2,True,2,0.8498721122741699,1,
R2427,barrerás,179,word,2,True,2,1.3239243030548096,1,
R2427,vultaré,180,word,1,True,2,1.244056224822998,2,
R2427,subía,181,word,2,True,2,1.1090331077575684,1,
R2427,rondaríamos,182,word,2,True,2,1.751783847808838,1,
R2427,cetarían,183,word,1,True,2,1.140105962753296,2,
R2427,cortarán,184,word,2,True,2,0.8612761497497559,1,
R2427,seseré,185,word,2,False,2,1.1660027503967285,2,
R2427,vultaría,186,word,1,True,2,1.0882539749145508,2,
R2427,zusaríamos,187,word,1,True,2,1.318943977355957,2,
R2427,retarán,188,word,2,True,2,0.8199779987335205,1,
R2427,imías,189,word,1,True,2,1.229175090789795,2,
R2427,luchará,190,word,2,True,2,0.7609007358551025,1,
R2427,bruvía,191,word,1,True,2,0.9989149570465088,2,
R2427,charlarían,192,word,1,False,2,1.4570460319519043,1,
R2427,ciperás,193,word,1,True,2,0.9240310192108154,2,
R2427,lorgaría,194,word,2,False,2,0.8591818809509277,2,
R2427,bigaré,195,word,1,True,2,0.7901229858398438,2,
R2427,rimaría,196,word,2,True,2,1.002990961074829,1,
R2427,lailarás,197,word,1,True,2,1.1509671211242676,2,
R2427,focarán,198,word,1,True,2,1.6691040992736816,2,
R2427,correrán,199,word,2,True,2,0.8369400501251221,1,
R2427,cubriremos,200,word,2,True,2,1.7239511013031006,1,
R2427,casábamos,201,word,2,True,2,0.7869889736175537,1,
R2427,subirías,202,word,2,True,2,1.145923137664795,1,
R2427,casarán,203,word,2,True,2,0.7472367286682129,1,
R2427,tupliríamos,204,word,1,True,2,2.7770450115203857,2,
R2427,chanraría,205,word,1,True,2,2.370842695236206,2,
R2427,bimarían,206,word,1,True,2,0.8600718975067139,2,
R2427,runaban,207,word,1,True,2,1.142090082168579,2,
R2427,fundirás,208,word,1,False,2,0.8529350757598877,1,
R2427,anreríamos,209,word,1,True,2,2.6590778827667236,2,
R2427,zusará,210,word,1,True,2,0.830010175704956,2,
R2427,cefleríamos,211,word,1,True,2,1.2768628597259521,2,
R2427,burrarías,212,word,1,True,2,1.8650190830230713,2,
R2427,fanerás,213,word,1,True,2,0.8770008087158203,2,
R2427,arderías,214,word,2,True,2,0.8790130615234375,1,
R2427,anreré,215,word,1,True,2,1.3990039825439453,2,
R2427,bailarán,216,word,2,True,2,0.9409880638122559,1,
R2427,unirán,217,word,2,True,2,0.9660799503326416,1,
R2427,retaremos,218,word,2,True,2,1.1912639141082764,1,
R2427,jurarían,219,word,2,True,2,1.048966884613037,1,
R2427,pavarás,220,word,1,True,2,1.5069561004638672,2,
R2427,sesías,221,word,2,False,2,3.053982973098755,2,
R2427,cipíamos,222,word,1,True,2,0.8587958812713623,2,
R2427,sauaban,223,word,1,True,2,1.3200147151947021,2,
R2427,sauaría,224,word,1,True,2,2.045112133026123,2,
R2427,maftaban,225,word,1,True,2,1.0550000667572021,2,
R2427,cenaba,226,word,2,True,2,0.969947099685669,1,
R2427,mardía,227,word,1,True,2,1.9910609722137451,2,
R2427,runaríamos,228,word,1,True,2,2.801990270614624,2,
R2427,tujirías,229,word,1,True,2,1.0519301891326904,2,
R2427,mordíamos,230,word,2,True,2,0.7960188388824463,1,
R2427,lacherás,231,word,1,True,2,0.8260488510131836,2,
R2427,burrábamos,232,word,1,True,2,2.3330559730529785,2,
R2427,riteríamos,233,word,1,True,2,2.3558638095855713,2,
R2427,imirías,234,word,2,False,2,1.9480230808258057,2,
R2427,galarían,235,word,1,True,2,1.9460458755493164,2,
R2427,chanrarán,236,word,1,True,2,0.7717540264129639,2,
R2427,formaría,237,word,2,True,2,1.5140860080718994,1,
R2427,pactará,238,word,1,False,2,1.0079870223999023,1,
R2427,bailaba,239,word,2,True,2,1.326766014099121,1,
R2427,somerán,240,word,1,True,2,1.023029088973999,2,
R2427,narraríamos,241,word,2,True,2,2.0839948654174805,1,
R2427,riteremos,242,word,2,False,2,1.5200929641723633,2,
R2427,frinderás,243,word,1,True,2,1.712005853652954,2,
R2427,ceflería,244,word,1,True,2,1.0828862190246582,2,
R2427,unían,245,word,2,True,2,1.5678789615631104,1,
R2427,cuarrías,246,word,1,True,2,1.8899681568145752,2,
R2427,sindaba,247,word,1,True,2,1.2509841918945312,2,
R2427,cetabas,248,word,1,True,2,2.0871407985687256,2,
R2427,pavarías,249,word,1,True,2,1.5109891891479492,2,
R2427,runabas,250,word,1,True,2,1.2220842838287354,2,
R2427,rayaríamos,251,word,2,True,2,1.0148601531982422,1,
R2427,focarían,252,word,2,False,2,0.663931131362915,2,
R2427,lucharán,253,word,2,True,2,0.9730160236358643,1,
R2427,ciperíamos,254,word,1,True,2,0.9429972171783447,2,
R2427,venderán,255,word,2,True,2,2.035040855407715,1,
R2427,ciperé,256,word,1,True,2,1.835047960281372,2,
R2427,rayabas,257,word,2,True,2,1.5160601139068604,1,
R2427,cetaré,258,word,1,True,2,2.166944980621338,2,
R2427,rimaré,259,word,2,True,2,6.149159908294678,1,
R2427,seserías,260,word,1,True,2,0.9098718166351318,2,
R2427,pactarás,261,word,1,False,2,0.9099247455596924,1,
R2427,cisaba,262,word,2,False,2,0.9910850524902344,2,
R2427,ceteré,263,word,1,True,2,0.952890157699585,2,
R2427,fundirías,264,word,1,False,2,0.7670190334320068,1,
R2427,prenderán,265,word,2,True,2,1.070089340209961,1,
R2427,lucharás,266,word,2,True,2,0.9428091049194336,1,
R2427,fundiríamos,267,word,1,False,2,0.9854300022125244,1,
R2427,obraban,268,word,2,True,2,1.8829669952392578,1,
R2427,venderías,269,word,2,True,2,1.6458959579467773,1,
R2427,runarás,270,word,1,True,2,1.5950570106506348,2,
R2427,monceríamos,271,word,1,True,2,6.385111093521118,2,
R2427,partiré,272,word,2,True,2,0.9180541038513184,1,
R2427,porerá,273,word,1,True,2,1.042935848236084,2,
R2427,cortaba,274,word,2,True,2,0.7471189498901367,1,
R2427,cortaríamos,275,word,2,True,2,1.2708990573883057,1,
R2427,mardiría,276,word,1,True,2,1.3290371894836426,2,
R2427,narrará,277,word,2,True,2,0.9619519710540771,1,
R2427,morderían,278,word,2,True,2,0.7949309349060059,1,
R2427,rondábamos,279,word,2,True,2,1.1001672744750977,1,
R2427,comería,280,word,2,True,2,0.7480959892272949,1,
R2427,porería,281,word,1,True,2,0.825963020324707,2,
R2427,gacharían,282,word,1,True,2,1.6030147075653076,2,
R2427,sesíamos,283,word,1,True,2,2.669036865234375,2,
R2427,nadábamos,284,word,1,False,2,0.828059196472168,1,
R2427,gacharemos,285,word,1,True,2,0.8729398250579834,2,
R2427,ceterá,286,word,1,True,2,0.8900320529937744,2,
R2427,cuarríamos,287,word,1,True,2,0.8970460891723633,2,
R2427,focaré,288,word,1,True,2,1.147001028060913,2,
R2427,besarías,289,word,1,False,2,0.8880650997161865,1,
R2427,narraría,290,word,2,True,2,1.333927869796753,1,
R2427,cefleré,291,word,1,True,2,0.9698779582977295,2,
R2427,anrerás,292,word,1,True,2,0.9589557647705078,2,
R2427,sufrían,293,word,2,True,2,1.224013090133667,1,
R2427,narrarás,294,word,2,True,2,0.6579740047454834,1,
R2427,seserán,295,word,1,True,2,1.9170377254486084,2,
R2427,quijabas,296,word,2,False,2,1.1829009056091309,2,
R2427,jurará,297,word,2,True,2,0.8498930931091309,1,
R2427,meterá,298,word,2,True,2,0.9480171203613281,1,
R2427,cenaré,299,word,2,True,2,0.7379870414733887,1,
R2427,focaba,300,word,1,True,2,0.866966962814331,2,
R2427,sumará,301,word,2,True,2,0.834010124206543,1,
R2427,cetábamos,302,word,1,True,2,0.9990580081939697,2,
R2427,gruñía,303,word,2,True,2,1.8390920162200928,1,
R2427,gruñiré,304,word,2,True,2,2.2189292907714844,1,
R2427,sufrirá,305,word,2,True,2,0.7719652652740479,1,
R2427,rimabas,306,word,2,True,2,1.449817180633545,1,
R2427,cosías,307,word,2,True,2,2.362990140914917,1,
R2427,quijarían,308,word,1,True,2,1.1037108898162842,2,
R2427,cenaban,309,word,2,True,2,2.930288076400757,1,
R2427,cederías,310,word,1,False,2,0.7359881401062012,1,
R2427,burrará,311,word,1,True,2,1.0388479232788086,2,
R2427,tuplíamos,312,word,1,True,2,1.0919451713562012,2,
R2427,bigábamos,313,word,1,True,3,2.068955183029175,2,
R2427,mardiríamos,314,word,1,True,3,1.0969431400299072,2,
R2427,mardirá,315,word,1,True,3,0.9099278450012207,2,
R2427,maftaríamos,316,word,1,True,3,0.8363282680511475,2,
R2427,bruviríamos,317,word,1,True,3,0.8280577659606934,2,
R2427,bailarían,318,word,2,True,3,0.7868332862854004,1,
R2427,moncerás,319,word,1,True,3,1.7169349193572998,2,
R2427,bruvíamos,320,word,1,True,3,0.8768978118896484,2,
R2427,subirían,321,word,2,True,3,1.5810959339141846,1,
R2427,runarían,322,word,1,True,3,1.8550212383270264,2,
R2427,rotarían,323,word,2,True,3,1.8110709190368652,1,
R2427,metían,324,word,2,True,3,1.446864128112793,1,
R2427,lorgarías,325,word,1,True,3,1.7560248374938965,2,
R2427,frinderán,326,word,1,True,3,1.09682297706604,2,
R2427,rimarás,327,word,2,True,3,0.9928147792816162,1,
R2427,nadarías,328,word,2,True,3,1.5630111694335938,1,
R2427,meteré,329,word,2,True,3,3.2679240703582764,1,
R2427,barreremos,330,word,2,True,3,3.332115888595581,1,
R2427,rotarías,331,word,2,True,3,3.0128910541534424,1,
R2427,temería,332,word,2,True,3,1.1199710369110107,1,
R2427,toseremos,333,word,2,True,3,7.399992942810059,1,
R2427,galaré,334,word,1,True,3,0.8758370876312256,2,
R2427,tosían,335,word,2,True,3,0.8499629497528076,1,
R2427,comías,336,word,2,True,3,0.6980679035186768,1,
R2427,cichían,337,word,1,True,3,0.9549150466918945,2,
R2427,rondaba,338,word,2,True,3,0.9048867225646973,1,
R2427,cubrían,339,word,2,True,3,2.2099571228027344,1,
R2427,tuplirían,340,word,1,True,3,1.5528919696807861,2,
R2427,lucharían,341,word,2,True,3,4.039072275161743,1,
R2427,cichía,342,word,1,True,3,0.8317770957946777,2,
R2427,lachían,343,word,1,True,3,6.512275218963623,2,
R2427,sumaré,344,word,2,True,3,1.390791893005371,1,
R2427,seseríamos,345,word,2,False,3,6.228331089019775,2,
R2427,rayarían,346,word,2,True,3,1.1600630283355713,1,
R2427,barreré,347,word,2,True,3,3.220128059387207,1,
R2427,burrabas,348,word,1,True,3,1.7078721523284912,2,
R2427,somían,349,word,1,True,3,3.4959590435028076,2,
R2427,ceteremos,350,word,1,True,3,19.121325969696045,2,
R2427,cosíamos,351,word,2,True,3,1.1380980014801025,1,
R2427,sindaríamos,352,word,1,True,3,1.1521730422973633,2,
R2427,obraremos,353,word,1,False,3,4.370117902755737,1,
R2427,lorgarían,354,word,2,False,3,1.8835110664367676,2,
R2427,narrarán,355,word,2,True,3,0.7240991592407227,1,
R2427,lailábamos,356,word,1,True,3,1.573714017868042,2,
R2427,fanería,357,word,1,True,3,0.8271543979644775,2,
R2427,besaremos,358,word,2,True,3,0.8853871822357178,1,
R2427,unirían,359,word,2,True,3,1.5183091163635254,1,
R2427,sauaríamos,360,word,1,True,3,0.8313229084014893,2,
R2427,tujíamos,361,word,1,True,3,0.16906476020812988,2,
R2427,eplará,362,word,1,True,3,1.256580114364624,2,
R2427,bruvían,363,word,1,True,3,1.5618269443511963,2,
R2427,fundirá,364,word,1,False,3,7.912142038345337,1,
R2427,lucharías,365,word,2,True,3,0.9829449653625488,1,
R2427,imiremos,366,word,1,True,3,0.976032018661499,2,
R2427,rotarás,367,word,2,True,3,1.3420851230621338,1,
R2427,honderías,368,word,1,True,3,0.7908809185028076,2,
R2427,bigabas,369,word,1,True,3,0.9629600048065186,2,
R2427,tujirían,370,word,1,True,3,9.175994873046875,2,
R2427,sufriré,371,word,2,True,3,0.8800299167633057,1,
R2427,fanerá,372,word,1,True,3,0.8329229354858398,2,
R2427,pavarán,373,word,1,True,3,15.98005199432373,2,
R2427,sumaba,374,word,2,True,3,0.8789570331573486,1,
R2427,faltarían,375,word,2,True,3,0.8329758644104004,1,
R2427,cuarriré,376,word,1,True,3,0.9601268768310547,2,
R2427,cubría,377,word,2,True,3,0.9010100364685059,1,
R2427,ardería,378,word,2,True,3,0.7750861644744873,1,
R2427,rayaban,379,word,2,True,3,0.6871120929718018,1,
R2427,partirían,380,word,2,True,3,0.8061439990997314,1,
R2427,partirás,381,word,2,True,3,0.8902790546417236,1,
R2427,sufrirás,382,word,2,True,3,0.8130738735198975,1,
R2427,pavabas,383,word,1,True,3,0.9257898330688477,2,
R2427,faltarán,384,word,2,True,3,0.7340178489685059,1,
R2427,faneremos,385,word,1,True,3,1.6486949920654297,2,
R2427,prenderías,386,word,2,True,3,0.937108039855957,1,
R2427,bailará,387,word,2,True,3,1.289937973022461,1,
R2427,mardirían,388,word,1,True,3,1.0720531940460205,2,
R2427,somería,389,word,1,True,3,1.526947021484375,2,
R2427,tuplirás,390,word,1,True,3,0.8452491760253906,2,
R2427,moncíamos,391,word,1,True,3,0.9340550899505615,2,
R2427,comíamos,392,word,2,True,3,0.9339127540588379,1,
R2427,fundías,393,word,1,False,3,1.1599900722503662,1,
R2427,somíamos,394,word,1,True,3,1.4960041046142578,2,
R2427,hondía,395,word,1,True,3,1.601991891860962,2,
R2427,galábamos,396,word,1,True,3,0.7869369983673096,2,
R2427,maftaría,397,word,1,True,3,0.8140048980712891,2,
R2427,bailarás,398,word,2,True,3,0.8839619159698486,1,
R2427,moncerán,399,word,1,True,3,1.5050771236419678,2,
R2427,cisarán,400,word,2,False,3,1.6719489097595215,2,
R2427,somerías,401,word,1,True,3,2.344851016998291,2,
R2427,cuarrirá,402,word,1,True,3,1.648909091949463,2,
R2427,cichirá,403,word,1,True,3,0.7458980083465576,2,
R2427,runaría,404,word,1,True,3,0.9140410423278809,2,
R2427,casarás,405,word,2,True,3,1.054595947265625,1,
R2427,cubrirá,406,word,2,True,3,0.9199857711791992,1,
R2427,sauarían,407,word,1,True,3,0.899029016494751,2,
R2427,ceterían,408,word,1,True,3,0.8200628757476807,2,
R2427,uniríamos,409,word,2,True,3,0.9690811634063721,1,
R2427,luntirás,410,word,1,True,3,0.9339981079101562,2,
R2427,lameremos,411,word,2,True,3,2.247047185897827,1,
R2427,focaremos,412,word,1,True,3,0.8750569820404053,2,
R2427,narrarían,413,word,2,True,3,1.169867992401123,1,
R2427,bimarán,414,word,1,True,3,1.5521039962768555,2,
R2427,cenaremos,415,word,2,True,3,1.0210340023040771,1,
R2427,luntía,416,word,2,False,3,0.8530070781707764,2,
R2427,lucharé,417,word,2,True,3,1.1191551685333252,1,
R2427,chanraban,418,word,1,True,3,0.880993127822876,2,
R2427,luntirías,419,word,1,True,3,1.0290780067443848,2,
R2427,quijaríamos,420,word,1,True,3,1.2788259983062744,2,
R2427,anrería,421,word,1,True,3,1.0598649978637695,2,
R2427,moncerá,422,word,1,True,3,1.065903902053833,2,
R2427,galaban,423,word,1,True,3,0.7311239242553711,2,
R2427,cichiría,424,word,1,True,3,0.712939977645874,2,
R2427,formarías,425,word,2,True,3,1.2061030864715576,1,
R2427,eplaremos,426,word,1,True,3,2.178940773010254,2,
R2427,porerás,427,word,1,True,3,1.6490819454193115,2,
R2427,faltará,428,word,2,True,3,0.8469569683074951,1,
R2427,meterán,429,word,2,True,3,0.9410250186920166,1,
R2427,lailará,430,word,1,True,3,0.7409069538116455,2,
R2427,temerá,431,word,2,True,3,1.4259650707244873,1,
R2427,rimará,432,word,2,True,3,0.9470579624176025,1,
R2427,cubriríamos,433,word,2,True,3,1.1319842338562012,1,
R2427,focaban,434,word,1,True,3,0.9150669574737549,2,
R2427,pactabas,435,word,2,True,3,1.112994909286499,1,
R2427,fundía,436,word,2,True,3,2.9502980709075928,1,
R2427,cetarán,437,word,1,True,3,1.5519564151763916,2,
R2427,anrerías,438,word,1,True,3,0.840811014175415,2,
R2427,nadaremos,439,word,2,True,3,3.333085298538208,1,
R2427,arderé,440,word,2,True,3,1.1720402240753174,1,
R2427,bimaba,441,word,1,True,3,0.9979560375213623,2,
R2427,sindaremos,442,word,1,True,3,3.0921010971069336,2,
R2427,tosería,443,word,2,True,3,4.745175123214722,1,
R2427,subirá,444,word,2,True,3,1.4331538677215576,1,
R2427,cisarían,445,word,2,False,3,1.4719882011413574,2,
R2427,besabas,446,word,2,True,3,0.7920680046081543,1,
R2427,temerían,447,word,2,True,3,2.216891288757324,1,
R2427,jurarías,448,word,2,True,3,0.8731751441955566,1,
R2427,quemará,449,word,2,True,3,0.9669461250305176,1,
R2427,bimará,450,word,1,True,3,1.1369898319244385,2,
R2427,ceteríamos,451,word,1,True,3,1.846876859664917,2,
R2427,imía,452,word,1,True,3,1.3331129550933838,2,
R2427,vendían,453,word,2,True,3,0.812014102935791,1,
R2427,porerían,454,word,1,True,3,2.2991039752960205,2,
R2427,narrarías,455,word,2,True,3,1.7271497249603271,1,
R2427,vendíamos,456,word,2,True,3,17.045111894607544,1,
R2427,cederían,457,word,2,True,3,3.1809160709381104,1,
R2427,arderá,458,word,2,True,3,0.7959139347076416,1,
R2427,bigarán,459,word,1,True,3,0.8379988670349121,2,
R2427,cetaría,460,word,1,True,3,1.2180168628692627,2,
R2427,luntiría,461,word,1,True,3,0.7539956569671631,2,
R2427,metía,462,word,2,True,3,0.978909969329834,1,
R2427,meteremos,463,word,2,True,3,1.263066053390503,1,
R2427,cisará,464,word,2,False,3,1.354053020477295,2,
R2427,nadabas,465,word,2,True,3,4.835981130599976,1,
R2427,faltaré,466,word,2,True,3,0.9397718906402588,1,
R2427,cisaremos,467,word,2,False,3,11.605053901672363,2,
R2427,uniremos,468,word,2,True,3,1.2919080257415771,1,
R2427,cubrirías,469,word,2,True,4,1.2948992252349854,1,
R2427,narraba,470,word,2,True,4,0.7090239524841309,1,
R2427,cumplías,471,word,2,True,4,0.9110360145568848,1,
R2427,temerás,472,word,2,True,4,0.8068201541900635,1,
R2427,unirás,473,word,2,True,4,1.2647690773010254,1,
R2427,ceflía,474,word,1,True,4,1.2660129070281982,2,
R2427,casaremos,475,word,2,True,4,1.5801119804382324,1,
R2427,lacheríamos,476,word,1,True,4,1.8430511951446533,2,
R2427,runaré,477,word,1,True,4,1.064054012298584,2,
R2427,cetaríamos,478,word,1,True,4,1.9921419620513916,2,
R2427,monceremos,479,word,1,True,4,1.5079641342163086,2,
R2427,cumpliría,480,word,2,True,4,1.1359059810638428,1,
R2427,barría,481,word,2,True,4,0.9281201362609863,1,
R2427,cortarás,482,word,2,True,4,0.9358251094818115,1,
R2427,tupliremos,483,word,1,True,4,1.1919970512390137,2,
R2427,rayaré,484,word,2,True,4,0.85201096534729,1,
R2427,subiré,485,word,2,True,4,1.1557860374450684,1,
R2427,sufriría,486,word,2,True,4,0.9010269641876221,1,
R2427,galarán,487,word,1,True,4,0.8768589496612549,2,
R2427,mertaré,488,word,1,True,4,1.6219251155853271,2,
R2427,lachíamos,489,word,1,True,4,1.467005968093872,2,
R2427,tujiremos,490,word,1,True,4,0.8488781452178955,2,
R2427,frinderá,491,word,1,True,4,1.6041102409362793,2,
R2427,chanraba,492,word,1,True,4,0.8549649715423584,2,
R2427,lailaría,493,word,1,True,4,0.9819562435150146,2,
R2427,gachaba,494,word,1,True,4,0.7919790744781494,2,
R2427,mertará,495,word,1,True,4,1.2251191139221191,2,
R2427,focaríamos,496,word,1,True,4,1.126917839050293,2,
R2427,mordías,497,word,2,True,4,1.0428900718688965,1,
R2427,formaba,498,word,2,True,4,1.7079780101776123,1,
R2427,imíamos,499,word,1,True,4,1.3592920303344727,2,
R2427,morderá,500,word,2,True,4,0.8249037265777588,1,
R2427,cenabas,501,word,2,True,4,1.230975866317749,1,
R2427,sesería,502,word,1,True,4,2.0790672302246094,2,
R2427,lacherías,503,word,1,True,4,0.8520188331604004,2,
R2427,eplarás,504,word,1,True,4,1.0327749252319336,2,
R2427,mordía,505,word,2,True,4,0.8268771171569824,1,
R2427,frindíamos,506,word,1,True,4,1.1940951347351074,2,
R2427,vultará,507,word,1,True,4,0.8720440864562988,2,
R2427,pactaré,508,word,2,True,4,1.6740210056304932,1,
R2427,pavará,509,word,1,True,4,1.1228318214416504,2,
R2427,cichiremos,510,word,1,True,4,1.437162160873413,2,
R2427,maftarán,511,word,1,True,4,0.8080272674560547,2,
R2427,formaremos,512,word,2,True,4,1.0122270584106445,1,
R2427,gachabas,513,word,1,True,4,1.6436820030212402,2,
R2427,cederá,514,word,2,True,4,1.1079931259155273,1,
R2427,arderemos,515,word,2,True,4,0.9179050922393799,1,
R2427,luntiremos,516,word,1,True,4,0.8959598541259766,2,
R2427,sindarías,517,word,1,True,4,2.3789708614349365,2,
R2427,formarían,518,word,2,True,4,0.7659761905670166,1,
R2427,comerán,519,word,2,True,4,0.7690207958221436,1,
R2427,sumarás,520,word,2,True,4,0.9750299453735352,1,
R2427,obraré,521,word,2,True,4,1.0979831218719482,1,
R2427,lorgaremos,522,word,1,True,4,1.377798080444336,2,
R2427,pavarían,523,word,1,True,4,1.2279949188232422,2,
R2427,imiríamos,524,word,1,True,4,1.3187928199768066,2,
R2427,ritíamos,525,word,1,True,4,1.4459137916564941,2,
R2427,chanrábamos,526,word,1,True,4,1.5679099559783936,2,
R2427,coserá,527,word,2,True,4,0.7497670650482178,1,
R2427,sindará,528,word,1,True,4,0.8459339141845703,2,
R2427,moncían,529,word,1,True,4,1.287653923034668,2,
R2427,cisaré,530,word,1,True,4,1.5827867984771729,2,
R2427,lamerías,531,word,2,True,4,1.2787940502166748,1,
R2427,prendía,532,word,2,True,4,0.7058899402618408,1,
R2427,retaba,533,word,2,True,4,1.1243760585784912,1,
R2427,meteríamos,534,word,2,True,4,1.2788069248199463,1,
R2427,ciperían,535,word,1,True,4,0.8979661464691162,2,
R2427,eplaban,536,word,1,True,4,0.9240372180938721,2,
R2427,toserías,537,word,2,True,4,0.7000401020050049,1,
R2427,cedería,538,word,2,True,4,0.8053820133209229,1,
R2427,tujirá,539,word,1,True,4,0.8058671951293945,2,
R2427,cederé,540,word,2,True,4,1.0927951335906982,1,
R2427,cichías,541,word,1,True,4,0.9110572338104248,2,
R2427,lucharía,542,word,2,True,4,0.6812670230865479,1,
R2427,nadarían,543,word,2,True,4,0.5938827991485596,1,
R2427,ceflerá,544,word,1,True,4,0.8788859844207764,2,
R2427,cedíamos,545,word,2,True,4,1.101038932800293,1,
R2427,juraba,546,word,2,True,4,0.6729819774627686,1,
R2427,venderemos,547,word,2,True,4,1.0110688209533691,1,
R2427,coserías,548,word,2,True,4,0.6999919414520264,1,
R2427,cubrías,549,word,2,True,4,1.5629079341888428,1,
R2427,tupliré,550,word,1,True,4,0.8419480323791504,2,
R2427,riterías,551,word,1,True,4,1.1144509315490723,2,
R2427,subías,552,word,2,True,4,0.8359649181365967,1,
R2427,ceterás,553,word,1,True,4,0.9312570095062256,2,
R2427,casarían,554,word,2,True,4,0.8354878425598145,1,
R2427,cetía,555,word,1,True,4,1.1560461521148682,2,
R2427,venderé,556,word,2,True,4,0.8159317970275879,1,
R2427,lailaban,557,word,1,True,4,0.8830139636993408,2,
R2427,bimaremos,558,word,1,True,4,1.4880650043487549,2,
R2427,zusarás,559,word,1,True,4,1.1490437984466553,2,
R2427,quijará,560,word,1,True,4,0.924907922744751,2,
R2427,cetará,561,word,1,True,4,0.915989875793457,2,
R2427,tosíamos,562,word,2,True,4,0.9670348167419434,1,
R2427,sauabas,563,word,1,True,4,0.9750020503997803,2,
R2427,obrábamos,564,word,1,False,4,1.7669618129730225,1,
R2427,partirías,565,word,2,True,4,0.947969913482666,1,
R2427,eplábamos,566,word,1,True,4,1.3963408470153809,2,
R2427,luntirá,567,word,1,True,4,0.988091230392456,2,
R2427,cumplían,568,word,2,True,4,0.8593459129333496,1,
R2427,luntiré,569,word,1,True,4,1.0339469909667969,2,
R2427,somías,570,word,1,True,4,0.8209669589996338,2,
R2427,comeremos,571,word,2,True,4,0.8233580589294434,1,
R2427,jurábamos,572,word,2,True,4,0.6199429035186768,1,
R2427,cederás,573,word,1,False,4,0.8008818626403809,1,
R2427,bigaremos,574,word,1,True,4,0.9888226985931396,2,
R2427,fundíamos,575,word,1,False,4,0.8929269313812256,1,
R2427,unía,576,word,2,True,4,0.9007148742675781,1,
R2427,cumpliríamos,577,word,2,True,4,0.8609850406646729,1,
R2427,porías,578,word,1,True,4,0.8780488967895508,2,
R2427,cisaríamos,579,word,1,True,4,1.4459762573242188,2,
R2427,cumplirá,580,word,2,True,4,0.8331148624420166,1,
R2427,cortaré,581,word,2,True,4,0.7769601345062256,1,
R2427,sauarías,582,word,1,True,4,0.8307912349700928,2,
R2427,luchaba,583,word,2,True,4,0.825963020324707,1,
R2427,imiría,584,word,1,True,4,1.1259939670562744,2,
R2427,formaban,585,word,2,True,4,1.0412211418151855,1,
R2427,luntías,586,word,1,True,4,2.2749183177948,2,
R2427,pavaban,587,word,1,True,4,0.9829199314117432,2,
R2427,lacheremos,588,word,1,True,4,1.3980798721313477,2,
R2427,zusaría,589,word,1,True,4,1.4360220432281494,2,
R2427,fundirán,590,word,1,False,4,3.5659871101379395,1,
R2427,temía,591,word,2,True,4,0.7170472145080566,1,
R2427,lamerían,592,word,2,True,4,0.9492011070251465,1,
R2427,vultaban,593,word,1,True,4,0.7400851249694824,2,
R2427,somerían,594,word,1,True,4,1.3010833263397217,2,
R2427,pactarías,595,word,2,True,4,2.437734842300415,1,
R2427,rayaría,596,word,2,True,4,0.8440618515014648,1,
R2427,temían,597,word,2,True,4,1.9168829917907715,1,
R2427,barrerían,598,word,2,True,4,0.9810972213745117,1,
R2427,rotaré,599,word,2,True,4,1.2019290924072266,1,
R2427,gruñían,600,word,2,True,4,1.5271379947662354,1,
R2427,moncería,601,word,1,True,4,2.5860111713409424,2,
R2427,cubrirían,602,word,2,True,4,0.9011352062225342,1,
R2427,chanrabas,603,word,1,True,4,0.7529661655426025,2,
R2427,barrían,604,word,2,True,4,0.8759989738464355,1,
R2427,coserán,605,word,2,True,4,0.7391350269317627,1,
R2427,cuarrirás,606,word,1,True,4,0.8438551425933838,2,
R2427,cosía,607,word,2,True,4,1.1459589004516602,1,
R2427,nadaban,608,word,2,True,4,0.6000518798828125,1,
R2427,frindían,609,word,1,True,4,0.8398969173431396,2,
R2427,obrarás,610,word,2,True,4,1.5009698867797852,1,
R2427,someremos,611,word,2,False,4,1.5840368270874023,2,
R2427,obrarías,612,word,2,True,4,0.851402997970581,1,
R2427,temerías,613,word,2,True,4,1.0280299186706543,1,
R2427,anrían,614,word,1,True,4,1.1469740867614746,2,
R2427,anreremos,615,word,2,False,4,0.8868141174316406,2,
R2427,partirá,616,word,2,True,4,0.8682458400726318,1,
R2427,sindarían,617,word,1,True,4,1.84299898147583,2,
R2427,lamías,618,word,2,True,4,0.8639590740203857,1,
R2427,cortarían,619,word,2,True,4,1.2660620212554932,1,
R2427,pavaba,620,word,1,True,4,0.9581120014190674,2,
R2427,jurarás,621,word,2,True,4,0.6807868480682373,1,
R2427,porían,622,word,1,True,4,0.9319460391998291,2,
R2427,venderás,623,word,2,True,4,4.249080181121826,1,
R2427,ceflerían,624,word,1,True,4,0.7750787734985352,2,
R2427,charlaríamos,625,word,2,True,5,2.3128907680511475,1,
R2427,sauará,626,word,1,True,5,0.9592747688293457,2,
R2427,rondaban,627,word,2,True,5,1.047914981842041,1,
R2427,ciperá,628,word,1,True,5,0.8630151748657227,2,
R2427,rotabas,629,word,2,True,5,1.3028950691223145,1,
R2427,prendían,630,word,2,True,5,0.8380849361419678,1,
R2427,sauaré,631,word,1,True,5,0.758864164352417,2,
R2427,faltabas,632,word,2,True,5,0.8309810161590576,1,
R2427,bruvirás,633,word,1,True,5,0.7688899040222168,2,
R2427,someré,634,word,1,True,5,1.071964979171753,2,
R2427,gacharíamos,635,word,1,True,5,0.8970470428466797,2,
R2427,rotará,636,word,2,True,5,1.1638829708099365,1,
R2427,faltaría,637,word,2,True,5,2.207103967666626,1,
R2427,rayaba,638,word,2,True,5,0.7519607543945312,1,
R2427,casaríamos,639,word,2,True,5,1.2129240036010742,1,
R2427,cenarán,640,word,2,True,5,2.0988729000091553,1,
R2427,vultarás,641,word,1,True,5,0.8320419788360596,2,
R2427,sufriremos,642,word,2,True,5,0.8139948844909668,1,
R2427,obraría,643,word,2,True,5,1.6320161819458008,1,
R2427,rimaban,644,word,2,True,5,2.4238789081573486,1,
R2427,cetíamos,645,word,1,True,5,0.9749071598052979,2,
R2427,morderías,646,word,2,True,5,0.9570260047912598,1,
R2427,bruvirá,647,word,1,True,5,0.7619190216064453,2,
R2427,bruvirían,648,word,1,True,5,0.7578599452972412,2,
R2427,pactaríamos,649,word,1,False,5,0.906019926071167,1,
R2427,cichiríamos,650,word,1,True,5,1.1588950157165527,2,
R2427,maftarían,651,word,1,True,5,0.7900919914245605,2,
R2427,vultabas,652,word,1,True,5,0.6500000953674316,2,
R2427,cumplíamos,653,word,2,True,5,0.6499221324920654,1,
R2427,maftaba,654,word,1,True,5,0.6518762111663818,2,
R2427,pactaba,655,word,2,True,5,1.2461130619049072,1,
R2427,rondarán,656,word,2,True,5,1.0610291957855225,1,
R2427,cenará,657,word,2,True,5,0.8310472965240479,1,
R2427,subirás,658,word,2,True,5,0.8478689193725586,1,
R2427,formaré,659,word,2,True,5,1.2120318412780762,1,
R2427,bailaban,660,word,2,True,5,0.7037591934204102,1,
R2427,ceflíamos,661,word,1,True,5,0.9229240417480469,2,
R2427,quemábamos,662,word,2,True,5,0.9299147129058838,1,
R2427,fanían,663,word,1,True,5,0.9302809238433838,2,
R2427,tujirán,664,word,1,True,5,0.7961010932922363,2,
R2427,cuarriríamos,665,word,1,True,5,1.466465950012207,2,
R2427,temías,666,word,2,True,5,0.8290202617645264,1,
R2427,vendías,667,word,2,True,5,1.043945074081421,1,
R2427,prenderíamos,668,word,2,True,5,3.889214038848877,1,
R2427,ciperán,669,word,1,True,5,0.8102679252624512,2,
R2427,faltaban,670,word,2,True,5,0.7532370090484619,1,
R2427,ardían,671,word,2,True,5,0.8152658939361572,1,
R2427,cumplirían,672,word,2,True,5,1.8607299327850342,1,
R2427,cortaremos,673,word,2,True,5,1.5521762371063232,1,
R2427,sufriríamos,674,word,2,True,5,2.427335023880005,1,
R2427,cisarías,675,word,1,True,5,4.032296895980835,2,
R2427,barrerías,676,word,2,True,5,1.309096097946167,1,
R2427,mertarás,677,word,1,True,5,1.4175889492034912,2,
R2427,tuplirán,678,word,1,True,5,0.9161150455474854,2,
R2427,cipía,679,word,1,True,5,0.7571802139282227,2,
R2427,sufrías,680,word,2,True,5,1.0981969833374023,1,
R2427,rotaban,681,word,2,True,5,0.688910961151123,1,
R2427,galaremos,682,word,1,True,5,0.8968420028686523,2,
R2427,bruvirías,683,word,1,True,5,1.3289761543273926,2,
R2427,nadaríamos,684,word,2,True,5,1.1918599605560303,1,
R2427,sufrirían,685,word,2,True,5,0.7809531688690186,1,
R2427,chanraré,686,word,1,True,5,0.8240032196044922,2,
R2427,faltaremos,687,word,2,True,5,1.8049471378326416,1,
R2427,obrarán,688,word,2,True,5,1.0410490036010742,1,
R2427,faneré,689,word,1,True,5,5.481097936630249,2,
R2427,fanía,690,word,1,True,5,1.7630131244659424,2,
R2427,gachábamos,691,word,1,True,5,0.8688247203826904,2,
R2427,gruñiremos,692,word,2,True,5,1.3219630718231201,1,
R2427,mertaremos,693,word,1,True,5,1.613002061843872,2,
R2427,charlarías,694,word,1,False,5,0.6921200752258301,1,
R2427,juraré,695,word,2,True,5,0.6700680255889893,1,
R2427,ceflerás,696,word,1,True,5,0.8340911865234375,2,
R2427,quemabas,697,word,2,True,5,0.690089225769043,1,
R2427,bruvirán,698,word,1,True,5,0.7489569187164307,2,
R2427,cichíamos,699,word,1,True,5,2.2790660858154297,2,
R2427,moncías,700,word,1,True,5,4.9799323081970215,2,
R2427,hondían,701,word,1,True,5,0.862908124923706,2,
R2427,quemarían,702,word,2,True,5,0.7840762138366699,1,
R2427,mordían,703,word,2,True,5,1.3630499839782715,1,
R2427,quijaba,704,word,1,True,5,1.0768539905548096,2,
R2427,mordería,705,word,2,True,5,0.7930202484130859,1,
R2427,rayarán,706,word,2,True,5,1.0599453449249268,1,
R2427,faltaba,707,word,2,True,5,2.6853301525115967,1,
R2427,fanerías,708,word,1,True,5,0.8839421272277832,2,
R2427,coseríamos,709,word,2,True,5,0.8218560218811035,1,
R2427,cuarrirán,710,word,1,True,5,2.125044822692871,2,
R2427,eplaré,711,word,1,True,5,0.9447758197784424,2,
R2427,cetías,712,word,1,True,5,1.0661580562591553,2,
R2427,cumplirán,713,word,2,True,5,0.8160338401794434,1,
R2427,mardirán,714,word,1,True,5,0.9781248569488525,2,
R2427,ritías,715,word,1,True,5,1.0911009311676025,2,
R2427,bruviré,716,word,1,True,5,0.834204912185669,2,
R2427,comerás,717,word,2,True,5,0.8279101848602295,1,
R2427,lorgábamos,718,word,1,True,5,2.3769588470458984,2,
R2427,seserían,719,word,1,True,5,4.989062786102295,2,
R2427,cumpliré,720,word,2,True,5,0.7779140472412109,1,
R2427,cipías,721,word,1,True,5,0.7289369106292725,2,
R2427,lamerá,722,word,2,True,5,0.7639837265014648,1,
R2427,formarás,723,word,2,True,5,1.158926010131836,1,
R2427,frindería,724,word,1,True,5,1.5349998474121094,2,
R2427,rayarás,725,word,2,True,5,2.2459912300109863,1,
R2427,bimaban,726,word,1,True,5,0.810032844543457,2,
R2427,uniría,727,word,2,True,5,1.784776210784912,1,
R2427,cedía,728,word,2,True,5,0.795935869216919,1,
R2427,faltaríamos,729,word,1,False,5,0.9420459270477295,1,
R2427,subiríamos,730,word,2,True,5,3.269361734390259,1,
R2427,prendería,731,word,2,True,5,1.0259568691253662,1,
R2427,lacherán,732,word,1,True,5,0.9778380393981934,2,
R2427,zusarías,733,word,1,True,5,0.6749608516693115,2,
R2427,anrerán,734,word,1,True,5,0.9529259204864502,2,
R2427,unirá,735,word,2,True,5,0.7479839324951172,1,
R2427,lachía,736,word,1,True,5,1.0569841861724854,2,
R2427,charlará,737,word,2,True,5,2.5529050827026367,1,
R2427,cubrirán,738,word,2,True,5,1.0191831588745117,1,
R2427,maftarías,739,word,1,True,5,6.063162803649902,2,
R2427,eplaba,740,word,1,True,5,0.8049881458282471,2,
R2427,burraré,741,word,1,True,5,0.8549151420593262,2,
R2427,burraríamos,742,word,1,True,5,0.9100480079650879,2,
R2427,pactaban,743,word,2,True,5,1.0578842163085938,1,
R2427,arderíamos,744,word,2,True,5,0.8168468475341797,1,
R2427,cetaba,745,word,1,True,5,0.9580059051513672,2,
R2427,zusarán,746,word,1,True,5,0.7069599628448486,2,
R2427,barríamos,747,word,2,True,5,0.8649637699127197,1,
R2427,gruñirán,748,word,2,True,5,4.292923927307129,1,
R2427,cubrirás,749,word,2,True,5,0.8910582065582275,1,
R2427,focaría,750,word,1,True,5,0.7569139003753662,2,
R2427,runaba,751,word,1,True,5,0.9421310424804688,2,
R2427,lacherá,752,word,1,True,5,0.7279782295227051,2,
R2427,jurarán,753,word,2,True,5,0.6690061092376709,1,
R2427,formarán,754,word,2,True,5,0.7920417785644531,1,
R2427,venderíamos,755,word,2,True,5,0.8099660873413086,1,
R2427,rondará,756,word,2,True,5,0.9138481616973877,1,
R2427,runábamos,757,word,1,True,5,1.5751049518585205,2,
R2427,mardirías,758,word,1,True,5,1.379040002822876,2,
R2427,comía,759,word,1,False,5,0.9609220027923584,1,
R2427,tuplían,760,word,1,True,5,1.885875940322876,2,
R2427,runarán,761,word,1,True,5,0.9899089336395264,2,
R2427,lucharemos,762,word,2,True,5,0.7959318161010742,1,
R2427,rondaré,763,word,2,True,5,0.6508738994598389,1,
R2427,charlarás,764,word,2,True,5,2.9894909858703613,1,
R2427,correrían,765,word,2,True,5,0.92000412940979,1,
R2427,pactaremos,766,word,2,True,5,1.185840129852295,1,
R2427,sesían,767,word,1,True,5,1.94193696975708,2,
R2427,lailaré,768,word,1,True,5,1.347200870513916,2,
R2427,lorgará,769,word,1,True,5,3.7129931449890137,2,
R2427,somerá,770,word,1,True,5,1.1220240592956543,2,
R2427,bimaría,771,word,1,True,5,1.1259551048278809,2,
R2427,honderé,772,word,1,True,5,2.5470120906829834,2,
R2427,rondarían,773,word,2,True,5,1.343883991241455,1,
R2427,rimarán,774,word,2,True,5,0.701909065246582,1,
R2427,cichiré,775,word,1,True,5,6.932624101638794,2,
R2427,somerás,776,word,1,True,5,1.0198628902435303,2,
R2427,subiremos,777,word,2,True,5,1.153852939605713,1,
R2427,quijaría,778,word,1,True,5,0.7701010704040527,2,
R2427,rotábamos,779,word,2,True,5,0.9988958835601807,1,
R2427,lachías,780,word,1,True,5,0.7240121364593506,2,
R2427,focarías,781,word,1,True,6,1.0238802433013916,2,
R2427,sumábamos,782,word,2,True,6,0.7960588932037354,1,
R2427,rotarán,783,word,2,True,6,0.9550580978393555,1,
R2427,gacharía,784,word,1,True,6,0.9441390037536621,2,
R2427,corríamos,785,word,2,True,6,0.7588760852813721,1,
R2427,casaría,786,word,2,True,6,0.837954044342041,1,
R2427,lamería,787,word,2,True,6,0.7387630939483643,1,
R2427,cuarría,788,word,1,True,6,2.4389801025390625,2,
R2427,burraría,789,word,1,True,6,0.9720120429992676,2,
R2427,ceterías,790,word,1,True,6,0.976128101348877,2,
R2427,charlaré,791,word,2,True,6,1.478187084197998,1,
R2427,metíamos,792,word,2,True,6,0.9110419750213623,1,
R2427,burrarás,793,word,1,True,6,1.0110678672790527,2,
R2427,focabas,794,word,1,True,6,2.2050952911376953,2,
R2427,pavaríamos,795,word,1,True,6,0.8349349498748779,2,
R2427,fundían,796,word,2,True,6,1.018061876296997,1,
R2427,retará,797,word,2,True,6,0.736231803894043,1,
R2427,sufrirán,798,word,2,True,6,1.1558852195739746,1,
R2427,charlabas,799,word,2,True,6,1.1638100147247314,1,
R2427,jurabas,800,word,2,True,6,1.0200979709625244,1,
R2427,cortaban,801,word,2,True,6,3.634042263031006,1,
R2427,riterás,802,word,1,True,6,0.8529341220855713,2,
R2427,partiríamos,803,word,2,True,6,1.107125997543335,1,
R2427,temeré,804,word,2,True,6,0.6610429286956787,1,
R2427,quemaríamos,805,word,2,True,6,1.7549457550048828,1,
R2427,gacharás,806,word,1,True,6,0.8440461158752441,2,
R2427,mertarías,807,word,1,True,6,1.0960192680358887,2,
R2427,sindarán,808,word,1,True,6,0.8790938854217529,2,
R2427,galabas,809,word,1,True,6,0.8655750751495361,2,
R2427,retarás,810,word,2,True,6,0.8799188137054443,1,
R2427,somía,811,word,1,True,6,0.8779330253601074,2,
R2427,gruñirían,812,word,2,True,6,2.134953022003174,1,
R2427,unías,813,word,2,True,6,0.7938261032104492,1,
R2427,chanraremos,814,word,1,True,6,0.8803849220275879,2,
R2427,venderían,815,word,2,True,6,2.093899965286255,1,
R2427,rondaremos,816,word,2,True,6,3.2578909397125244,1,
R2427,sumarían,817,word,2,True,6,0.7411708831787109,1,
R2427,cuarriremos,818,word,1,True,6,0.8849480152130127,2,
R2427,besaría,819,word,2,True,6,0.7209157943725586,1,
R2427,zusabas,820,word,1,True,6,0.7986247539520264,2,
R2427,lucharíamos,821,word,2,True,6,1.4839701652526855,1,
R2427,luntían,822,word,1,True,6,2.9760799407958984,2,
R2427,charlaría,823,word,2,True,6,0.8279249668121338,1,
R2427,tujirás,824,word,1,True,6,1.2359998226165771,2,
R2427,runarías,825,word,1,True,6,1.048213005065918,2,
R2427,lailarán,826,word,1,True,6,3.076805830001831,2,
R2427,narrabas,827,word,2,True,6,0.7929728031158447,1,
R2427,sindaré,828,word,1,True,6,0.826024055480957,2,
R2427,tosías,829,word,2,True,6,1.1348810195922852,1,
R2427,partiría,830,word,2,True,6,6.318088054656982,1,
R2427,lailarían,831,word,1,True,6,0.7867209911346436,2,
R2427,charlaba,832,word,2,True,6,0.8609490394592285,1,
R2427,retaré,833,word,2,True,6,0.8489410877227783,1,
R2427,charlaremos,834,word,2,True,6,0.8649139404296875,1,
R2427,hondería,835,word,1,True,6,0.722830057144165,2,
R2427,anrías,836,word,1,True,6,1.057908058166504,2,
R2427,tujiría,837,word,1,True,6,0.7609391212463379,2,
R2427,pavábamos,838,word,1,True,6,1.1059839725494385,2,
R2427,nadarán,839,word,2,True,6,0.8001210689544678,1,
R2427,quijábamos,840,word,1,True,6,0.8788542747497559,2,
R2427,corrías,841,word,2,True,6,1.4038100242614746,1,
R2427,monceré,842,word,1,True,6,1.3679800033569336,2,
R2427,tuplirá,843,word,1,True,6,3.3399789333343506,2,
R2427,mardirás,844,word,1,True,6,1.1230659484863281,2,
R2427,burraba,845,word,1,True,6,1.7540321350097656,2,
R2427,morderán,846,word,2,True,6,5.409066200256348,1,
R2427,casaba,847,word,2,True,6,0.778975248336792,1,
R2427,luntirían,848,word,1,True,6,0.9630827903747559,2,
R2427,rimaremos,849,word,2,True,6,0.9208290576934814,1,
R2427,ardía,850,word,2,True,6,0.7798912525177002,1,
R2427,faníamos,851,word,1,True,6,0.9608590602874756,2,
R2427,narraremos,852,word,2,True,6,0.85201096534729,1,
R2427,bigaríamos,853,word,1,True,6,0.8260831832885742,2,
R2427,maftaré,854,word,1,True,6,0.8642959594726562,2,
R2427,sumarán,855,word,2,True,6,1.0180296897888184,1,
R2427,bigaba,856,word,1,True,6,2.015207290649414,2,
R2427,barrerá,857,word,1,False,6,0.8441808223724365,1,
R2427,moncerías,858,word,1,True,6,2.5610272884368896,2,
R2427,tujías,859,word,1,True,6,0.7511289119720459,2,
R2427,riteré,860,word,2,False,6,2.515918016433716,2,
R2427,vendería,861,word,2,True,6,2.747162103652954,1,
R2427,cipería,862,word,1,True,6,0.9564180374145508,2,
R2427,subían,863,word,2,True,6,0.8839879035949707,1,
R2427,galaba,864,word,1,True,6,5.541991949081421,2,
R2427,sauaba,865,word,1,True,6,1.1991419792175293,2,
R2427,tujía,866,word,1,True,6,0.6849589347839355,2,
R2427,lachería,867,word,1,True,6,1.100080966949463,2,
R2427,chanrarías,868,word,1,True,6,3.849323034286499,2,
R2427,comían,869,word,2,True,6,1.0499849319458008,1,
R2427,quijarías,870,word,1,True,6,0.8687911033630371,2,
R2427,cortábamos,871,word,2,True,6,6.5441460609436035,1,
R2427,lameríamos,872,word,2,True,6,1.0309791564941406,1,
R2427,bigarías,873,word,1,True,6,0.8840539455413818,2,
R2427,anrerá,874,word,1,True,6,0.9319379329681396,2,
R2427,partíamos,875,word,2,True,6,0.7999958992004395,1,
R2427,sindaban,876,word,1,True,6,0.9409327507019043,2,
R2427,seseremos,877,word,2,False,6,1.3229079246520996,2,
R2427,focábamos,878,word,1,True,6,1.0379531383514404,2,
R2427,comerías,879,word,2,True,6,0.7550048828125,1,
R2427,poreré,880,word,1,True,6,2.1240928173065186,2,
R2427,coseré,881,word,2,True,6,1.5470259189605713,1,
R2427,retarías,882,word,2,True,6,0.9239597320556641,1,
R2427,bailaríamos,883,word,2,True,6,4.144038200378418,1,
R2427,nadará,884,word,2,True,6,0.6520838737487793,1,
R2427,cisábamos,885,word,2,False,6,3.5649681091308594,2,
R2427,cetarás,886,word,1,True,6,0.8910729885101318,2,
R2427,toseríamos,887,word,2,True,6,1.976954698562622,1,
R2427,quijaban,888,word,1,True,6,1.002871036529541,2,
R2427,rondaría,889,word,2,True,6,0.7968709468841553,1,
R2427,prenderemos,890,word,2,True,6,0.9471030235290527,1,
R2427,maftará,891,word,1,True,6,6.8292717933654785,2,
R2427,gacharías,892,word,1,True,6,0.742034912109375,2,
R2427,bigaría,893,word,1,True,6,0.6819298267364502,2,
R2427,cortabas,894,word,2,True,6,0.8128859996795654,1,
R2427,zusábamos,895,word,1,True,6,0.8390407562255859,2,
R2427,bailarías,896,word,2,True,6,4.269973993301392,1,
R2427,seserá,897,word,2,False,6,1.5539140701293945,2,
R2427,cumplirás,898,word,2,True,6,0.7486457824707031,1,
R2427,anría,899,word,1,True,6,1.0381078720092773,2,
R2427,maftábamos,900,word,1,True,6,2.0222630500793457,2,
R2427,uníamos,901,word,2,True,6,0.7771258354187012,1,
R2427,mardiremos,902,word,1,True,6,9.579990863800049,2,
R2427,lorgabas,903,word,1,True,6,1.7550899982452393,2,
R2427,cortaría,904,word,2,True,6,1.0230779647827148,1,
R2427,eplaría,905,word,1,True,6,0.7389631271362305,2,
R2427,lailaba,906,word,1,True,6,0.9549381732940674,2,
R2427,cenarías,907,word,2,True,6,0.8330068588256836,1,
R2427,ceflías,908,word,1,True,6,0.774940013885498,2,
R2427,ardíamos,909,word,2,True,6,0.7764091491699219,1,
R2427,quemarías,910,word,2,True,6,0.792046070098877,1,
R2427,retábamos,911,word,2,True,6,3.6857709884643555,1,
R2427,cenarían,912,word,2,True,6,0.8169088363647461,1,
R2427,mardíamos,913,word,1,True,6,3.8995468616485596,2,
R2427,ceflían,914,word,1,True,6,1.1788530349731445,2,
R2427,prenderé,915,word,2,True,6,12.578961849212646,1,
R2427,bruviremos,916,word,1,True,6,0.7580480575561523,2,
R2427,tujiré,917,word,1,True,6,1.1269481182098389,2,
R2427,zusaré,918,word,1,True,6,0.6920700073242188,2,
R2427,obrabas,919,word,1,False,6,2.49410080909729,1,
R2427,focará,920,word,1,True,6,0.9301261901855469,2,
R2427,bigarían,921,word,1,True,6,0.7809438705444336,2,
R2427,galaríamos,922,word,1,True,6,0.8048977851867676,2,
R2427,pactarían,923,word,1,False,6,2.399045944213867,1,
R2427,ardías,924,word,2,True,6,0.7539494037628174,1,
R2427,cosería,925,word,2,True,6,0.8638370037078857,1,
R2427,prenderían,926,word,2,True,6,0.7701339721679688,1,
R2427,ceterán,927,word,1,True,6,1.0059561729431152,2,
R2427,unirías,928,word,2,True,6,0.8299808502197266,1,
R2427,sauábamos,929,word,1,True,6,2.6241109371185303,2,
R2427,besaré,930,word,2,True,6,1.1460380554199219,1,
R2427,mertaba,931,word,1,True,6,1.0009629726409912,2,
R2427,pavaremos,932,word,1,True,6,4.328977823257446,2,
R2427,prenderá,933,word,2,True,6,0.8230330944061279,1,
R2427,sindarás,934,word,1,True,6,0.7769730091094971,2,
R2427,bimarás,935,word,1,True,6,0.7900853157043457,2,
R2427,vultarían,936,word,1,True,6,0.8030250072479248,2,
R2427,cipían,937,word,1,True,7,3.9308340549468994,2,
R2427,rondarás,938,word,2,True,7,1.020043134689331,1,
R2427,bailabas,939,word,2,True,7,0.6510069370269775,1,
R2427,meterías,940,word,2,True,7,0.9220237731933594,1,
R2427,barrías,941,word,2,True,7,0.6329879760742188,1,
R2427,bigarás,942,word,1,True,7,0.7928709983825684,2,
R2427,cubríamos,943,word,2,True,7,0.8749279975891113,1,
R2427,hondíamos,944,word,1,True,7,0.7346441745758057,2,
R2427,correrías,945,word,2,True,7,0.6867809295654297,1,
R2427,sufríamos,946,word,2,True,7,1.3579590320587158,1,
R2427,lailarías,947,word,1,True,7,1.2031869888305664,2,
R2427,gacharé,948,word,1,True,7,2.22285795211792,2,
R2427,correrás,949,word,2,True,7,0.80824875831604,1,
R2427,toserían,950,word,2,True,7,8.770132064819336,1,
R2427,correrá,951,word,2,True,7,0.5718209743499756,1,
R2427,cubriré,952,word,2,True,7,0.8769898414611816,1,
R2427,cedían,953,word,2,True,7,1.0191020965576172,1,
R2427,nadaba,954,word,2,True,7,0.5860240459442139,1,
R2427,gruñíamos,955,word,2,True,7,0.7799060344696045,1,
R2427,comerían,956,word,2,True,7,0.5400471687316895,1,
R2427,luntíamos,957,word,1,True,7,0.7749228477478027,2,
R2427,narraré,958,word,2,True,7,0.800861120223999,1,
R2427,rotaba,959,word,2,True,7,0.6310179233551025,1,
R2427,cedías,960,word,2,True,7,1.227027177810669,1,
R2427,quemaría,961,word,2,True,7,0.7620790004730225,1,
R2427,sesía,962,word,1,True,7,3.5010390281677246,2,
R2427,riterán,963,word,2,False,7,1.2070212364196777,2,
R2427,gruñiríamos,964,word,2,True,7,2.079962968826294,1,
R2427,imirán,965,word,1,True,7,3.8810412883758545,2,
R2427,lamerás,966,word,2,True,7,0.6699459552764893,1,
R2427,burrarán,967,word,1,True,7,1.0899419784545898,2,
R2427,sauarás,968,word,1,True,7,1.3598008155822754,2,
R2427,quemarán,969,word,2,True,7,0.7150027751922607,1,
R2427,poreríamos,970,word,1,True,7,0.8379449844360352,2,
R2427,maftabas,971,word,1,True,7,0.6624870300292969,2,
R2427,subirán,972,word,2,True,7,0.7690420150756836,1,
R2427,eplarán,973,word,1,True,7,4.894945859909058,2,
R2427,pavaré,974,word,1,True,7,0.7109169960021973,2,
R2427,frinderíamos,975,word,1,True,7,0.7880136966705322,2,
R2427,besábamos,976,word,2,True,7,8.805306911468506,1,
R2427,cetaremos,977,word,1,True,7,0.8559210300445557,2,
R2427,formábamos,978,word,2,True,7,0.7218449115753174,1,
R2427,uniré,979,word,2,True,7,0.7269330024719238,1,
R2427,narraban,980,word,2,True,7,0.6697688102722168,1,
R2427,corría,981,word,2,True,7,0.5290470123291016,1,
R2427,partían,982,word,2,True,7,0.766793966293335,1,
R2427,prendías,983,word,2,True,7,0.7505810260772705,1,
R2427,comeríamos,984,word,2,True,7,30.393491983413696,1,
R2427,poreremos,985,word,1,True,7,1.3663427829742432,2,
R2427,lorgaba,986,word,1,True,7,1.2421798706054688,2,
R2427,sumaremos,987,word,2,True,7,0.8012149333953857,1,
R2427,barrerán,988,word,2,True,7,0.7548019886016846,1,
R2427,burrarían,989,word,1,True,7,1.347208023071289,2,
R2427,rayábamos,990,word,2,True,7,0.7695531845092773,1,
R2427,gruñirá,991,word,2,True,7,0.8960361480712891,1,
R2427,lacheré,992,word,1,True,7,1.1059808731079102,2,
R2427,casarías,993,word,2,True,7,0.7639560699462891,1,
R2427,cumplirías,994,word,2,True,7,0.7508318424224854,1,
R2427,coseremos,995,word,2,True,7,1.0199391841888428,1,
R2427,cetían,996,word,1,True,7,0.9828097820281982,2,
R2427,riterá,997,word,2,False,7,0.9829428195953369,2,
R2427,temeremos,998,word,2,True,7,0.8909289836883545,1,
R2427,tuplía,999,word,1,True,7,7.569118976593018,2,
R2427,gruñirías,1000,word,2,True,7,1.2809810638427734,1,
R2427,bimábamos,1001,word,1,True,7,0.8739328384399414,2,
R2427,chanrarás,1002,word,1,True,7,0.8081049919128418,2,
R2427,rondarías,1003,word,2,True,7,0.8499479293823242,1,
R2427,lamíamos,1004,word,2,True,7,0.8370029926300049,1,
R2427,faltábamos,1005,word,2,True,7,0.7078900337219238,1,
R2427,rimarían,1006,word,2,True,7,1.2338497638702393,1,
R2427,poría,1007,word,1,True,7,9.851954221725464,2,
R2427,ciperemos,1008,word,1,True,7,1.3420617580413818,2,
R2427,casaré,1009,word,2,True,7,0.7548768520355225,1,
R2427,cichirían,1010,word,1,True,7,0.9991910457611084,2,
R2427,morderás,1011,word,2,True,7,0.8498678207397461,1,
R2427,cosían,1012,word,2,True,7,0.8219940662384033,1,
R2427,ceflerán,1013,word,1,True,7,0.7818892002105713,2,
R2427,honderás,1014,word,1,True,7,0.7700679302215576,2,
R2427,fanías,1015,word,1,True,7,0.8959600925445557,2,
R2427,luntirán,1016,word,1,True,7,8.086050033569336,2,
R2427,cumplía,1017,word,2,True,7,0.7218129634857178,1,
R2427,metías,1018,word,2,True,7,0.8939530849456787,1,
R2427,chanraríamos,1019,word,1,True,7,3.526003360748291,2,
R2427,quijarás,1020,word,1,True,7,3.3979010581970215,2,
R2427,quijaré,1021,word,1,True,7,3.965118885040283,2,
R2427,besaba,1022,word,2,True,7,1.7529621124267578,1,
R2427,focarás,1023,word,1,True,7,8.347146034240723,2,
R2427,toserás,1024,word,p,False,7,35.34326386451721,1,
R2427,porerías,1025,word,1,True,7,2.390009880065918,2,
R2427,maftarás,1026,word,1,True,7,0.7379779815673828,2,
R2427,rayará,1027,word,2,True,7,0.7320609092712402,1,
R2427,quemaban,1028,word,2,True,7,0.6359109878540039,1,
R2427,rondabas,1029,word,2,True,7,0.7109549045562744,1,
R2427,correría,1030,word,2,True,7,0.7137410640716553,1,
R2427,rotaríamos,1031,word,2,True,7,0.7521889209747314,1,
R2427,bruvías,1032,word,1,True,7,0.8552477359771729,2,
R2427,cederíamos,1033,word,2,True,7,1.1238319873809814,1,
R2427,cenaría,1034,word,2,True,7,0.7100210189819336,1,
R2427,bailaré,1035,word,2,True,7,0.6580290794372559,1,
R2427,bruviría,1036,word,1,True,7,0.7380039691925049,2,
R2427,galarías,1037,word,1,True,7,0.6388862133026123,2,
R2427,cenaríamos,1038,word,2,True,7,0.7181413173675537,1,
R2427,besarás,1039,word,2,True,7,1.7128679752349854,1,
R2427,honderán,1040,word,1,True,7,0.9258949756622314,2,
R2427,besaríamos,1041,word,2,True,7,0.7550442218780518,1,
R2427,honderíamos,1042,word,1,True,7,0.8959410190582275,2,
R2427,imiré,1043,word,1,True,7,0.7298388481140137,2,
R2427,quemaremos,1044,word,2,True,7,0.8229360580444336,1,
R2427,ritería,1045,word,1,True,7,1.5350971221923828,2,
R2427,charlábamos,1046,word,2,True,7,1.1010189056396484,1,
R2427,temerán,1047,word,2,True,7,0.7240777015686035,1,
R2427,besarían,1048,word,2,True,7,0.7848849296569824,1,
R2427,cuarrirías,1049,word,1,True,7,2.1089839935302734,2,
R2427,fundiré,1050,word,2,True,7,1.9591281414031982,1,
R2427,faltarías,1051,word,2,True,7,0.9307682514190674,1,
R2427,comerá,1052,word,2,True,7,0.8610947132110596,1,
R2427,imían,1053,word,1,True,7,0.9522910118103027,2,
R2427,tuplirías,1054,word,1,True,7,0.8568761348724365,2,
R2427,sumaríamos,1055,word,2,True,7,0.9858896732330322,1,
R2427,venderá,1056,word,2,True,7,1.8179857730865479,1,
R2427,lailaríamos,1057,word,1,True,7,0.811223030090332,2,
R2427,honderían,1058,word,1,True,7,2.154027223587036,2,
R2427,tupliría,1059,word,1,True,7,0.8059546947479248,2,
R2427,obrará,1060,word,2,True,7,1.0009427070617676,1,
R2427,pactarán,1061,word,2,True,7,1.1029176712036133,1,
R2427,nadaría,1062,word,2,True,7,0.6308889389038086,1,
R2427,ritían,1063,word,1,True,7,1.1549859046936035,2,
R2427,mardías,1064,word,1,True,7,1.1149730682373047,2,
R2427,formabas,1065,word,2,True,7,0.8229279518127441,1,
R2427,partía,1066,word,2,True,7,1.401763916015625,1,
R2427,toseré,1067,word,2,True,7,1.0461397171020508,1,
R2427,sumarías,1068,word,2,True,7,1.4779798984527588,1,
R2427,moncerían,1069,word,1,True,7,1.8871660232543945,2,
R2427,burraremos,1070,word,1,True,7,1.1379661560058594,2,
R2427,sindábamos,1071,word,1,True,7,0.985008955001831,2,
R2427,luchábamos,1072,word,2,True,7,0.8701250553131104,1,
R2427,luchaban,1073,word,2,True,7,1.134099006652832,1,
R2427,rotaremos,1074,word,2,True,7,3.012009859085083,1,
R2427,hondías,1075,word,1,True,7,1.1159040927886963,2,
R2427,sufría,1076,word,2,True,7,0.8795158863067627,1,
R2427,barreríamos,1077,word,1,False,7,2.171048164367676,1,
R2427,narrábamos,1078,word,2,True,7,0.716865062713623,1,
R2427,tosía,1079,word,2,True,7,2.0750017166137695,1,
R2427,subíamos,1080,word,2,True,7,1.0232200622558594,1,
R2427,obraríamos,1081,word,1,False,7,2.691849946975708,1,
R2427,frindías,1082,word,1,True,7,0.8769798278808594,2,
R2427,bigaban,1083,word,1,True,7,1.0890541076660156,2,
R2427,vultaba,1084,word,1,True,7,0.8061261177062988,2,
R2427,besará,1085,word,2,True,7,0.8289859294891357,1,
R2427,cenábamos,1086,word,2,True,7,0.8479218482971191,1,
R2427,tujían,1087,word,1,True,7,1.5574581623077393,2,
R2427,frinderías,1088,word,1,True,7,0.940026044845581,2,
R2427,mertarían,1089,word,1,True,7,1.2550640106201172,2,
R2427,cuarriría,1090,word,1,True,7,0.8410320281982422,2,
R2427,mertábamos,1091,word,1,True,7,0.747974157333374,2,
R2427,correríamos,1092,word,2,True,7,1.2569637298583984,1,
