participant,stimuli,trialNum,target_type,response,correct,block,reaction_time,trigger,
R2462,bigaremos,1,word,1,True,1,0.9111008644104004,2,
R2462,luntían,2,word,1,True,1,1.1514430046081543,2,
R2462,cubriríamos,3,word,2,True,1,1.5067541599273682,1,
R2462,frinderán,4,word,1,True,1,1.5420730113983154,2,
R2462,sindabas,5,word,1,True,1,1.283811092376709,2,
R2462,tujían,6,word,1,True,1,1.2199628353118896,2,
R2462,lachería,7,word,1,True,1,1.4890880584716797,2,
R2462,luchaba,8,word,2,True,1,1.1630022525787354,1,
R2462,barrían,9,word,2,True,1,1.0678670406341553,1,
R2462,focaba,10,word,1,True,1,1.3072090148925781,2,
R2462,sumaría,11,word,2,True,1,1.2780191898345947,1,
R2462,quemarías,12,word,2,True,1,1.2269837856292725,1,
R2462,maftará,13,word,1,True,1,1.1580250263214111,2,
R2462,unirán,14,word,1,False,1,1.3278517723083496,1,
R2462,cubrían,15,word,2,True,1,1.823080062866211,1,
R2462,riterás,16,word,1,True,1,1.4560387134552002,2,
R2462,cetaban,17,word,1,True,1,1.3538198471069336,2,
R2462,rondaré,18,word,2,True,1,1.492042064666748,1,
R2462,gruñirían,19,word,2,True,1,1.363853931427002,1,
R2462,bigarían,20,word,1,True,1,1.7060341835021973,2,
R2462,hondíamos,21,word,1,True,1,1.8412671089172363,2,
R2462,bigabas,22,word,1,True,1,1.0931439399719238,2,
R2462,luntirá,23,word,1,True,1,1.3069567680358887,2,
R2462,obrábamos,24,word,1,False,1,2.4869391918182373,1,
R2462,lailábamos,25,word,1,True,1,1.54789400100708,2,
R2462,unías,26,word,2,True,1,0.9247422218322754,1,
R2462,lucharemos,27,word,2,True,1,0.8849778175354004,1,
R2462,runará,28,word,1,True,1,1.2369060516357422,2,
R2462,sumaríamos,29,word,2,True,1,1.1816768646240234,1,
R2462,unirías,30,word,2,True,1,1.0460879802703857,1,
R2462,lailaríamos,31,word,1,True,1,0.9359469413757324,2,
R2462,obraba,32,word,1,False,1,0.9098880290985107,1,
R2462,lorgarás,33,word,2,False,1,1.2181038856506348,2,
R2462,arderá,34,word,2,True,1,1.5283639430999756,1,
R2462,bruvían,35,word,1,True,1,0.9409360885620117,2,
R2462,cetaré,36,word,1,True,1,1.0990147590637207,2,
R2462,cetarán,37,word,1,True,1,0.6970303058624268,2,
R2462,cedía,38,word,2,True,1,1.1958200931549072,1,
R2462,mardían,39,word,1,True,1,1.6559228897094727,2,
R2462,vultarían,40,word,1,True,1,1.844088077545166,2,
R2462,fanerían,41,word,1,True,1,1.4890050888061523,2,
R2462,ciperían,42,word,1,True,1,0.9822330474853516,2,
R2462,lailaremos,43,word,1,True,1,0.8887319564819336,2,
R2462,imía,44,word,1,True,1,1.8460040092468262,2,
R2462,cisarías,45,word,1,True,1,1.4970896244049072,2,
R2462,cuarrían,46,word,1,True,1,2.103986978530884,2,
R2462,obrarías,47,word,1,False,1,1.4267561435699463,1,
R2462,eplarían,48,word,1,True,1,1.1189067363739014,2,
R2462,focarían,49,word,1,True,1,1.3579771518707275,2,
R2462,cumpliremos,50,word,2,True,1,1.3899457454681396,1,
R2462,besaría,51,word,2,True,1,1.0139620304107666,1,
R2462,gruñía,52,word,2,True,1,0.8720848560333252,1,
R2462,nadarás,53,word,2,True,1,0.9007232189178467,1,
R2462,barreremos,54,word,2,True,1,2.0548150539398193,1,
R2462,charlaríamos,55,word,2,True,1,1.2409369945526123,1,
R2462,sindaremos,56,word,1,True,1,1.0698878765106201,2,
R2462,quijarían,57,word,1,True,1,1.7959389686584473,2,
R2462,cenaba,58,word,2,True,1,1.0389533042907715,1,
R2462,cichiremos,59,word,1,True,1,1.0787899494171143,2,
R2462,sumaba,60,word,2,True,1,1.2547202110290527,1,
R2462,retábamos,61,word,2,True,1,1.5050649642944336,1,
R2462,cubriremos,62,word,2,True,1,0.778986930847168,1,
R2462,anrían,63,word,1,True,1,1.3190629482269287,2,
R2462,lorgaremos,64,word,1,True,1,1.5340540409088135,2,
R2462,bruvíamos,65,word,2,False,1,1.925002098083496,2,
R2462,galaré,66,word,1,True,1,1.1020841598510742,2,
R2462,fundirían,67,word,2,True,1,1.867753028869629,1,
R2462,runarás,68,word,1,True,1,1.5130960941314697,2,
R2462,corrías,69,word,2,True,1,1.0179848670959473,1,
R2462,porías,70,word,1,True,1,1.1478207111358643,2,
R2462,bailarías,71,word,2,True,1,1.3258488178253174,1,
R2462,quemarás,72,word,2,True,1,1.0408799648284912,1,
R2462,porerán,73,word,1,True,1,1.1797230243682861,2,
R2462,pactaba,74,word,1,False,1,1.0999369621276855,1,
R2462,cumplían,75,word,2,True,1,0.973736047744751,1,
R2462,correrías,76,word,2,True,1,0.9817690849304199,1,
R2462,charlabas,77,word,2,True,1,1.4519391059875488,1,
R2462,runaban,78,word,1,True,1,1.5218629837036133,2,
R2462,barreríamos,79,word,2,True,1,0.9656810760498047,1,
R2462,sufría,80,word,2,True,1,0.8519906997680664,1,
R2462,pavaban,81,word,1,True,1,1.002769947052002,2,
R2462,bimábamos,82,word,1,True,1,1.601872205734253,2,
R2462,vultarías,83,word,1,True,1,1.0841777324676514,2,
R2462,vendíamos,84,word,2,True,1,1.08784818649292,1,
R2462,cumpliríamos,85,word,2,True,1,1.2507479190826416,1,
R2462,mertarán,86,word,1,True,1,1.4300379753112793,2,
R2462,pactaremos,87,word,1,False,1,0.7980680465698242,1,
R2462,narraríamos,88,word,2,True,1,1.512909173965454,1,
R2462,obrará,89,word,1,False,1,1.3139662742614746,1,
R2462,cosería,90,word,2,True,1,0.875953197479248,1,
R2462,lamerían,91,word,2,True,1,1.5017118453979492,1,
R2462,uniría,92,word,1,False,1,1.8441250324249268,1,
R2462,gachaba,93,word,1,True,1,0.93672776222229,2,
R2462,luntirías,94,word,1,True,1,1.0149850845336914,2,
R2462,somerá,95,word,1,True,1,1.199894905090332,2,
R2462,sumaremos,96,word,2,True,1,1.79693603515625,1,
R2462,rotará,97,word,2,True,1,1.7249670028686523,1,
R2462,vultará,98,word,1,True,1,0.7480251789093018,2,
R2462,sufriré,99,word,2,True,1,1.2298541069030762,1,
R2462,sauábamos,100,word,1,True,1,1.4129981994628906,2,
R2462,corría,101,word,2,True,1,1.0929250717163086,1,
R2462,cenaban,102,word,2,True,1,1.146817922592163,1,
R2462,quijaban,103,word,1,True,1,1.218062162399292,2,
R2462,obraremos,104,word,1,False,1,1.3840489387512207,1,
R2462,lamían,105,word,2,True,1,1.3351340293884277,1,
R2462,gacharía,106,word,1,True,1,1.009782075881958,2,
R2462,bailaríamos,107,word,2,True,1,1.729870080947876,1,
R2462,ritía,108,word,1,True,1,0.899909257888794,2,
R2462,lucharé,109,word,2,True,1,1.1552801132202148,1,
R2462,ceterían,110,word,2,False,1,1.5240142345428467,2,
R2462,mertará,111,word,1,True,1,1.7567639350891113,2,
R2462,sufrirías,112,word,2,True,1,1.1779241561889648,1,
R2462,charlarías,113,word,2,True,1,1.3129689693450928,1,
R2462,luntiremos,114,word,1,True,1,1.7288119792938232,2,
R2462,comías,115,word,2,True,1,0.8658592700958252,1,
R2462,sindaban,116,word,1,True,1,1.0619590282440186,2,
R2462,imirán,117,word,1,True,1,1.4629731178283691,2,
R2462,sufrirás,118,word,2,True,1,0.8681259155273438,1,
R2462,cosían,119,word,2,True,1,0.7849571704864502,1,
R2462,rimarían,120,word,2,True,1,1.7979710102081299,1,
R2462,somía,121,word,1,True,1,1.0838558673858643,2,
R2462,quijaremos,122,word,1,True,1,1.584190845489502,2,
R2462,pactaban,123,word,1,False,1,1.3679182529449463,1,
R2462,focarías,124,word,1,True,1,1.5349421501159668,2,
R2462,galaríamos,125,word,1,True,1,1.0848357677459717,2,
R2462,venderíamos,126,word,2,True,1,2.020875930786133,1,
R2462,gachábamos,127,word,1,True,1,1.0432078838348389,2,
R2462,sesían,128,word,1,True,1,1.9038190841674805,2,
R2462,correríamos,129,word,2,True,1,0.6807847023010254,1,
R2462,sauaremos,130,word,1,True,1,1.4810380935668945,2,
R2462,chanrarán,131,word,1,True,1,1.1129088401794434,2,
R2462,morderías,132,word,2,True,1,1.2537968158721924,1,
R2462,casaríamos,133,word,2,True,1,1.0858919620513916,1,
R2462,sumaré,134,word,2,True,1,1.6377320289611816,1,
R2462,rondaríamos,135,word,1,False,1,1.2947521209716797,1,
R2462,hondía,136,word,2,False,1,1.321056604385376,2,
R2462,pactaría,137,word,1,False,1,1.6217551231384277,1,
R2462,honderás,138,word,2,False,1,1.6121068000793457,2,
R2462,lorgabas,139,word,1,True,1,1.017958164215088,2,
R2462,bimarás,140,word,1,True,1,1.040921926498413,2,
R2462,narraremos,141,word,2,True,1,1.6761627197265625,1,
R2462,lorgarían,142,word,1,True,1,1.2389371395111084,2,
R2462,fundirán,143,word,1,False,1,1.7980520725250244,1,
R2462,cumplía,144,word,2,True,1,0.715782880783081,1,
R2462,rayábamos,145,word,2,True,1,1.2077271938323975,1,
R2462,frinderemos,146,word,1,True,1,1.07194185256958,2,
R2462,monceré,147,word,1,True,1,0.993870735168457,2,
R2462,seserías,148,word,1,True,1,0.969851016998291,2,
R2462,rotaría,149,word,2,True,1,1.0951261520385742,1,
R2462,chanraba,150,word,1,True,1,0.9357309341430664,2,
R2462,sufriremos,151,word,2,True,1,1.1597650051116943,1,
R2462,ritería,152,word,1,True,1,1.770117998123169,2,
R2462,charlarás,153,word,2,True,1,1.878932237625122,1,
R2462,cederás,154,word,1,False,1,1.6645350456237793,1,
R2462,toseré,155,word,2,True,1,1.7999300956726074,1,
R2462,ceflería,156,word,1,True,1,1.239121913909912,2,
R2462,besaríamos,157,word,2,True,2,1.1941730976104736,1,
R2462,cortaré,158,word,2,True,2,1.1518938541412354,1,
R2462,cubrirás,159,word,2,True,2,0.7473161220550537,1,
R2462,imiría,160,word,1,True,2,1.163924217224121,2,
R2462,cisabas,161,word,1,True,2,0.9376890659332275,2,
R2462,barrerán,162,word,2,True,2,1.1340742111206055,1,
R2462,comerían,163,word,2,True,2,0.8247120380401611,1,
R2462,charlaba,164,word,1,False,2,1.2940113544464111,1,
R2462,lucharía,165,word,2,True,2,1.4689748287200928,1,
R2462,focaban,166,word,1,True,2,1.0931110382080078,2,
R2462,cenaremos,167,word,2,True,2,0.7888011932373047,1,
R2462,sesería,168,word,1,True,2,0.973031759262085,2,
R2462,vultaban,169,word,1,True,2,0.952028751373291,2,
R2462,mardirían,170,word,1,True,2,1.5960400104522705,2,
R2462,lamerá,171,word,2,True,2,1.0149540901184082,1,
R2462,faneré,172,word,1,True,2,1.037649154663086,2,
R2462,cederá,173,word,1,False,2,0.8727810382843018,1,
R2462,cumpliría,174,word,2,True,2,1.2531352043151855,1,
R2462,charlarían,175,word,1,False,2,1.5088090896606445,1,
R2462,cenábamos,176,word,2,True,2,1.6290390491485596,1,
R2462,rotabas,177,word,2,True,2,1.0327961444854736,1,
R2462,mertaríamos,178,word,1,True,2,1.5176000595092773,2,
R2462,cumplirías,179,word,2,True,2,0.9109640121459961,1,
R2462,nadaremos,180,word,2,True,2,0.8927102088928223,1,
R2462,nadábamos,181,word,2,True,2,1.6018829345703125,1,
R2462,rayaba,182,word,2,True,2,1.4031422138214111,1,
R2462,barrerá,183,word,2,True,2,0.6774091720581055,1,
R2462,sumarán,184,word,2,True,2,1.2273988723754883,1,
R2462,pavará,185,word,1,True,2,0.7781150341033936,2,
R2462,mertarías,186,word,1,True,2,0.8427519798278809,2,
R2462,sumaban,187,word,2,True,2,0.9039821624755859,1,
R2462,cuarrirán,188,word,1,True,2,1.2840220928192139,2,
R2462,faltarían,189,word,2,True,2,1.0329620838165283,1,
R2462,toseremos,190,word,2,True,2,1.141510248184204,1,
R2462,cortaban,191,word,2,True,2,0.8618471622467041,1,
R2462,narrábamos,192,word,2,True,2,1.347886085510254,1,
R2462,seserán,193,word,1,True,2,0.963735818862915,2,
R2462,cubrirá,194,word,2,True,2,0.9091181755065918,1,
R2462,rondábamos,195,word,2,True,2,1.6298410892486572,1,
R2462,bimarán,196,word,1,True,2,1.3458621501922607,2,
R2462,pavarías,197,word,1,True,2,0.6919209957122803,2,
R2462,vendían,198,word,2,True,2,1.1809720993041992,1,
R2462,fanerías,199,word,1,True,2,1.0279080867767334,2,
R2462,nadarán,200,word,2,True,2,1.009803056716919,1,
R2462,somería,201,word,1,True,2,0.6754269599914551,2,
R2462,casaremos,202,word,2,True,2,0.6571347713470459,1,
R2462,temíamos,203,word,2,True,2,1.0015270709991455,1,
R2462,bruvirán,204,word,1,True,2,0.7939441204071045,2,
R2462,mertábamos,205,word,1,True,2,0.7929558753967285,2,
R2462,vendía,206,word,2,True,2,0.6660110950469971,1,
R2462,partías,207,word,2,True,2,0.8958950042724609,1,
R2462,comía,208,word,2,True,2,0.6069619655609131,1,
R2462,prendería,209,word,1,False,2,1.0217101573944092,1,
R2462,coseríamos,210,word,2,True,2,2.486248016357422,1,
R2462,pactaríamos,211,word,1,False,2,1.0547020435333252,1,
R2462,maftaban,212,word,1,True,2,0.7107329368591309,2,
R2462,tujía,213,word,1,True,2,0.8889548778533936,2,
R2462,jurábamos,214,word,2,True,2,0.8739688396453857,1,
R2462,seseremos,215,word,1,True,2,0.787877082824707,2,
R2462,cenarás,216,word,2,True,2,1.0611777305603027,1,
R2462,nadaré,217,word,2,True,2,0.8581140041351318,1,
R2462,jurará,218,word,2,True,2,0.9229319095611572,1,
R2462,sesías,219,word,1,True,2,0.8271462917327881,2,
R2462,subíamos,220,word,2,True,2,0.7659890651702881,1,
R2462,runábamos,221,word,1,True,2,1.404930830001831,2,
R2462,bailaría,222,word,2,True,2,0.9302198886871338,1,
R2462,rimaba,223,word,2,True,2,1.0379090309143066,1,
R2462,bigaba,224,word,1,True,2,0.8719160556793213,2,
R2462,tujiré,225,word,1,True,2,1.107105016708374,2,
R2462,rotarás,226,word,2,True,2,1.1749651432037354,1,
R2462,eplaban,227,word,1,True,2,0.8227500915527344,2,
R2462,ciperás,228,word,1,True,2,0.7179739475250244,2,
R2462,lorgaba,229,word,1,True,2,0.8177001476287842,2,
R2462,fundían,230,word,2,True,2,1.290820837020874,1,
R2462,imiré,231,word,1,True,2,0.7295491695404053,2,
R2462,gacharé,232,word,1,True,2,0.6368019580841064,2,
R2462,tuplirán,233,word,1,True,2,0.7647979259490967,2,
R2462,faltaríamos,234,word,2,True,2,0.8281149864196777,1,
R2462,unía,235,word,2,True,2,0.802692174911499,1,
R2462,eplaré,236,word,1,True,2,0.8538291454315186,2,
R2462,runarán,237,word,1,True,2,0.8200540542602539,2,
R2462,focará,238,word,1,True,2,0.9487941265106201,2,
R2462,cetería,239,word,1,True,2,0.77298903465271,2,
R2462,cedería,240,word,2,True,2,1.4200592041015625,1,
R2462,metíamos,241,word,1,False,2,1.9339241981506348,1,
R2462,cichían,242,word,1,True,2,0.7005271911621094,2,
R2462,bigaban,243,word,1,True,2,0.6090879440307617,2,
R2462,ritíamos,244,word,1,True,2,0.6738338470458984,2,
R2462,seserás,245,word,1,True,2,0.6260099411010742,2,
R2462,rimarías,246,word,1,False,2,1.2042591571807861,1,
R2462,tujirían,247,word,1,True,2,0.6933329105377197,2,
R2462,mordían,248,word,2,True,2,0.6767919063568115,1,
R2462,morderá,249,word,2,True,2,0.5709738731384277,1,
R2462,sumábamos,250,word,1,False,2,1.1038768291473389,1,
R2462,ceflías,251,word,1,True,2,0.9008162021636963,2,
R2462,rayaban,252,word,2,True,2,0.8891489505767822,1,
R2462,sumarás,253,word,2,True,2,0.8067009449005127,1,
R2462,ciperías,254,word,1,True,2,0.744865894317627,2,
R2462,porería,255,word,1,True,2,1.2600789070129395,2,
R2462,barrería,256,word,2,True,2,1.2070660591125488,1,
R2462,sauarás,257,word,1,True,2,1.159670114517212,2,
R2462,vendías,258,word,2,True,2,0.8519928455352783,1,
R2462,venderé,259,word,2,True,2,1.3280689716339111,1,
R2462,rimaría,260,word,2,True,2,1.2218711376190186,1,
R2462,cumplirás,261,word,2,True,2,1.5395362377166748,1,
R2462,nadaba,262,word,2,True,2,1.4597740173339844,1,
R2462,sufrían,263,word,2,True,2,0.8988940715789795,1,
R2462,cisaríamos,264,word,1,True,2,1.4931879043579102,2,
R2462,eplaremos,265,word,1,True,2,0.6809079647064209,2,
R2462,narraré,266,word,2,True,2,0.9939439296722412,1,
R2462,anría,267,word,1,True,2,1.1245179176330566,2,
R2462,casábamos,268,word,2,True,2,0.8489091396331787,1,
R2462,cosías,269,word,2,True,2,0.6368739604949951,1,
R2462,luntiríamos,270,word,1,True,2,0.9059410095214844,2,
R2462,cumpliré,271,word,2,True,2,0.8098571300506592,1,
R2462,temeríamos,272,word,2,True,2,0.7474842071533203,1,
R2462,faltarán,273,word,2,True,2,0.6911048889160156,1,
R2462,retarías,274,word,1,False,2,1.1248438358306885,1,
R2462,cubrirían,275,word,2,True,2,0.7839460372924805,1,
R2462,retarás,276,word,1,False,2,1.2151010036468506,1,
R2462,gachará,277,word,1,True,2,0.6489059925079346,2,
R2462,subirán,278,word,2,True,2,0.9825859069824219,1,
R2462,sauabas,279,word,1,True,2,0.8131189346313477,2,
R2462,lacherías,280,word,1,True,2,1.2717349529266357,2,
R2462,rotaremos,281,word,2,True,2,1.1186919212341309,1,
R2462,pavabas,282,word,2,False,2,0.9339900016784668,2,
R2462,correrán,283,word,2,True,2,0.7506897449493408,1,
R2462,sauaríamos,284,word,1,True,2,0.9069559574127197,2,
R2462,jurabas,285,word,2,True,2,1.18196702003479,1,
R2462,tosía,286,word,2,True,2,0.771428108215332,1,
R2462,focabas,287,word,1,True,2,0.6789677143096924,2,
R2462,rimaremos,288,word,2,True,2,1.0249919891357422,1,
R2462,tujirán,289,word,1,True,2,0.8244190216064453,2,
R2462,cetían,290,word,1,True,2,0.615915060043335,2,
R2462,subías,291,word,2,True,2,0.8230960369110107,1,
R2462,partía,292,word,1,False,2,0.6879317760467529,1,
R2462,moncerían,293,word,1,True,2,2.2739949226379395,2,
R2462,cichirás,294,word,1,True,2,0.7508871555328369,2,
R2462,pactarías,295,word,1,False,2,0.6329488754272461,1,
R2462,cetaremos,296,word,1,True,2,1.2420108318328857,2,
R2462,formabas,297,word,2,True,2,0.8288028240203857,1,
R2462,formaré,298,word,2,True,2,0.7198891639709473,1,
R2462,coserías,299,word,2,True,2,0.6920828819274902,1,
R2462,cenaré,300,word,2,True,2,0.757767915725708,1,
R2462,chanrábamos,301,word,1,True,2,1.0916459560394287,2,
R2462,juraban,302,word,2,True,2,0.6784369945526123,1,
R2462,frindíamos,303,word,1,True,2,1.407116174697876,2,
R2462,corríamos,304,word,2,True,2,1.0672369003295898,1,
R2462,cubrirán,305,word,2,True,2,0.8120901584625244,1,
R2462,obrarían,306,word,1,False,2,1.1970758438110352,1,
R2462,imíamos,307,word,1,True,2,0.6792800426483154,2,
R2462,rondaremos,308,word,1,False,2,0.9230821132659912,1,
R2462,honderías,309,word,2,False,2,1.238983154296875,2,
R2462,pactábamos,310,word,1,False,2,1.111156940460205,1,
R2462,bruviríamos,311,word,1,True,2,0.8111722469329834,2,
R2462,fundirá,312,word,2,True,2,1.656148910522461,1,
R2462,cederemos,313,word,1,False,3,1.291260004043579,1,
R2462,partiría,314,word,1,False,3,0.6617558002471924,1,
R2462,comerán,315,word,2,True,3,0.6901881694793701,1,
R2462,frindería,316,word,1,True,3,0.706183910369873,2,
R2462,somías,317,word,1,True,3,0.7082469463348389,2,
R2462,somerían,318,word,1,True,3,0.7482209205627441,2,
R2462,quijará,319,word,1,True,3,1.0823476314544678,2,
R2462,gruñías,320,word,2,True,3,0.9272871017456055,1,
R2462,hondían,321,word,1,True,3,0.8182158470153809,2,
R2462,faltaremos,322,word,1,False,3,1.8122141361236572,1,
R2462,formarían,323,word,1,False,3,1.0283668041229248,1,
R2462,prenderemos,324,word,2,True,3,1.5291273593902588,1,
R2462,fanía,325,word,1,True,3,0.8710100650787354,2,
R2462,partirían,326,word,2,True,3,1.4239470958709717,1,
R2462,galábamos,327,word,1,True,3,0.9670112133026123,2,
R2462,cuarriremos,328,word,1,True,3,0.8219788074493408,2,
R2462,faltaré,329,word,2,True,3,0.9207878112792969,1,
R2462,cichirá,330,word,1,True,3,0.723905086517334,2,
R2462,anreríamos,331,word,1,True,3,0.7631750106811523,2,
R2462,anrerás,332,word,1,True,3,0.5927670001983643,2,
R2462,prenderá,333,word,2,True,3,0.6288509368896484,1,
R2462,bimabas,334,word,1,True,3,1.1280949115753174,2,
R2462,cefleríamos,335,word,1,True,3,1.026960849761963,2,
R2462,toserán,336,word,2,True,3,0.7450282573699951,1,
R2462,rondaba,337,word,2,True,3,0.8939492702484131,1,
R2462,rimabas,338,word,2,True,3,0.8037722110748291,1,
R2462,meteríamos,339,word,2,True,3,2.0080978870391846,1,
R2462,bimaría,340,word,1,True,3,0.9048991203308105,2,
R2462,cefleremos,341,word,1,True,3,0.6898741722106934,2,
R2462,cuarrirás,342,word,1,True,3,0.940026044845581,2,
R2462,gruñíamos,343,word,2,True,3,0.6876599788665771,1,
R2462,luntía,344,word,1,True,3,0.6469259262084961,2,
R2462,besarían,345,word,2,True,3,0.7199249267578125,1,
R2462,tujiríamos,346,word,1,True,3,0.7259302139282227,2,
R2462,morderíamos,347,word,2,True,3,0.7655301094055176,1,
R2462,toseríamos,348,word,2,True,3,0.7401142120361328,1,
R2462,moncían,349,word,2,False,3,0.7878611087799072,2,
R2462,cetía,350,word,1,True,3,0.7818520069122314,2,
R2462,cisábamos,351,word,1,True,3,0.7969930171966553,2,
R2462,gacharán,352,word,1,True,3,0.734950065612793,2,
R2462,burrarías,353,word,1,True,3,0.735975980758667,2,
R2462,rotarían,354,word,2,True,3,0.922919750213623,1,
R2462,pavarás,355,word,1,True,3,0.7248420715332031,2,
R2462,riterían,356,word,1,True,3,2.1912319660186768,2,
R2462,luntirán,357,word,1,True,3,0.816688060760498,2,
R2462,metería,358,word,2,True,3,0.8367769718170166,1,
R2462,cedían,359,word,1,False,3,0.6408982276916504,1,
R2462,barrerían,360,word,2,True,3,1.2708179950714111,1,
R2462,sesíamos,361,word,1,True,3,1.0736989974975586,2,
R2462,zusaba,362,word,1,True,3,0.6758649349212646,2,
R2462,bailabas,363,word,2,True,3,0.7108161449432373,1,
R2462,cosía,364,word,2,True,3,0.7239019870758057,1,
R2462,gruñirá,365,word,2,True,3,0.6482460498809814,1,
R2462,maftarías,366,word,1,True,3,0.8248248100280762,2,
R2462,galarías,367,word,1,True,3,1.2217211723327637,2,
R2462,tujirías,368,word,1,True,3,0.9161248207092285,2,
R2462,anrerán,369,word,1,True,3,0.6429200172424316,2,
R2462,toserá,370,word,2,True,3,0.7349758148193359,1,
R2462,meteremos,371,word,2,True,3,1.022000789642334,1,
R2462,rayaría,372,word,2,True,3,0.7489221096038818,1,
R2462,prendía,373,word,2,True,3,0.9378957748413086,1,
R2462,moncerá,374,word,1,True,3,0.7849340438842773,2,
R2462,temerías,375,word,2,True,3,1.119818925857544,1,
R2462,besaba,376,word,2,True,3,0.7386810779571533,1,
R2462,cichirían,377,word,1,True,3,0.9670178890228271,2,
R2462,formaban,378,word,1,False,3,1.323749303817749,1,
R2462,lorgaría,379,word,1,True,3,1.2318649291992188,2,
R2462,ciperán,380,word,1,True,3,0.6339690685272217,2,
R2462,rimábamos,381,word,2,True,3,1.1093981266021729,1,
R2462,quijarán,382,word,2,False,3,1.8822441101074219,2,
R2462,morderían,383,word,2,True,3,0.8119800090789795,1,
R2462,lachías,384,word,1,True,3,0.716005802154541,2,
R2462,cuarrías,385,word,1,True,3,0.9783778190612793,2,
R2462,faltaba,386,word,2,True,3,0.7740180492401123,1,
R2462,rayarás,387,word,2,True,3,0.7127430438995361,1,
R2462,cortará,388,word,2,True,3,0.7209620475769043,1,
R2462,subiremos,389,word,2,True,3,1.6614339351654053,1,
R2462,lamíamos,390,word,2,True,3,0.8467111587524414,1,
R2462,bigaré,391,word,1,True,3,0.8484911918640137,2,
R2462,coserá,392,word,2,True,3,0.7116458415985107,1,
R2462,obrabas,393,word,1,False,3,0.7106928825378418,1,
R2462,vultarás,394,word,1,True,3,0.8091030120849609,2,
R2462,cichiría,395,word,1,True,3,0.6829218864440918,2,
R2462,lacherá,396,word,1,True,3,0.7519991397857666,2,
R2462,rondarían,397,word,1,False,3,1.5789289474487305,1,
R2462,rotarías,398,word,2,True,3,1.219736099243164,1,
R2462,quemarían,399,word,2,True,3,1.0118579864501953,1,
R2462,temerán,400,word,2,True,3,1.0320308208465576,1,
R2462,casaré,401,word,2,True,3,0.894740104675293,1,
R2462,sauaría,402,word,1,True,3,0.7008109092712402,2,
R2462,morderán,403,word,2,True,3,0.8930032253265381,1,
R2462,comíamos,404,word,2,True,3,0.784804105758667,1,
R2462,comerías,405,word,2,True,3,1.2879233360290527,1,
R2462,temía,406,word,2,True,3,1.1200220584869385,1,
R2462,bruviría,407,word,1,True,3,0.8079028129577637,2,
R2462,gacharemos,408,word,1,True,3,0.7048420906066895,2,
R2462,cubriré,409,word,2,True,3,1.4169871807098389,1,
R2462,someremos,410,word,1,True,3,1.1989829540252686,2,
R2462,sindaré,411,word,1,True,3,0.7197990417480469,2,
R2462,galarán,412,word,1,True,3,0.7413361072540283,2,
R2462,cipías,413,word,1,True,3,0.9722821712493896,2,
R2462,comían,414,word,2,True,3,1.4909491539001465,1,
R2462,lorgaré,415,word,1,True,3,0.8160319328308105,2,
R2462,quijaría,416,word,1,True,3,0.7189788818359375,2,
R2462,fundiríamos,417,word,2,True,3,2.512066602706909,1,
R2462,cetará,418,word,1,True,3,0.9299299716949463,2,
R2462,quemaría,419,word,2,True,3,0.699970006942749,1,
R2462,cuarríamos,420,word,1,True,3,0.8060190677642822,2,
R2462,focaré,421,word,1,True,3,1.1539227962493896,2,
R2462,anrerían,422,word,1,True,3,0.7347908020019531,2,
R2462,quemará,423,word,2,True,3,0.7920360565185547,1,
R2462,nadarías,424,word,2,True,3,1.4569909572601318,1,
R2462,retaban,425,word,2,True,3,0.795820951461792,1,
R2462,frinderás,426,word,1,True,3,0.8939690589904785,2,
R2462,lorgábamos,427,word,1,True,3,0.6391642093658447,2,
R2462,seseré,428,word,1,True,3,0.652728796005249,2,
R2462,cisaría,429,word,1,True,3,0.7456588745117188,2,
R2462,cuarrirá,430,word,1,True,3,0.6628820896148682,2,
R2462,sauará,431,word,1,True,3,0.6189968585968018,2,
R2462,riterías,432,word,1,True,3,0.7279629707336426,2,
R2462,toserías,433,word,2,True,3,0.6959638595581055,1,
R2462,casaba,434,word,2,True,3,0.6758778095245361,1,
R2462,galará,435,word,1,True,3,0.6400668621063232,2,
R2462,gruñiría,436,word,2,True,3,0.8048877716064453,1,
R2462,imirías,437,word,1,True,3,0.6509511470794678,2,
R2462,monceríamos,438,word,1,True,3,0.8979778289794922,2,
R2462,sufríamos,439,word,2,True,3,1.0524210929870605,1,
R2462,tupliríamos,440,word,1,True,3,0.9999392032623291,2,
R2462,mardías,441,word,1,True,3,1.211385726928711,2,
R2462,narraban,442,word,2,True,3,1.0547678470611572,1,
R2462,nadaban,443,word,1,False,3,1.055941104888916,1,
R2462,metías,444,word,2,True,3,1.1399970054626465,1,
R2462,frinderá,445,word,1,True,3,0.7560250759124756,2,
R2462,cederé,446,word,1,False,3,1.2148501873016357,1,
R2462,sauarían,447,word,1,True,3,2.405122756958008,2,
R2462,cubría,448,word,2,True,3,0.7525618076324463,1,
R2462,narraba,449,word,2,True,3,0.970703125,1,
R2462,cipería,450,word,1,True,3,0.7559370994567871,2,
R2462,seserá,451,word,1,True,3,0.7738142013549805,2,
R2462,faneremos,452,word,1,True,3,1.2287492752075195,2,
R2462,mardiré,453,word,1,True,3,1.0050029754638672,2,
R2462,quemaré,454,word,2,True,3,1.164747953414917,1,
R2462,cetaríamos,455,word,1,True,3,1.160837173461914,2,
R2462,prendíamos,456,word,2,True,3,0.661099910736084,1,
R2462,mardíamos,457,word,1,True,3,0.37772703170776367,2,
R2462,rayarían,458,word,2,True,3,2.0419788360595703,1,
R2462,cumplías,459,word,2,True,3,1.0439181327819824,1,
R2462,tujíamos,460,word,1,True,3,0.7268941402435303,2,
R2462,corrían,461,word,2,True,3,0.8031978607177734,1,
R2462,sufrirán,462,word,2,True,3,0.7429940700531006,1,
R2462,bruvirás,463,word,1,True,3,0.6288769245147705,2,
R2462,cetabas,464,word,1,True,3,0.5128679275512695,2,
R2462,galaremos,465,word,1,True,3,0.7280640602111816,2,
R2462,prenderán,466,word,2,True,3,0.6809070110321045,1,
R2462,formará,467,word,2,True,3,0.6879260540008545,1,
R2462,uniré,468,word,2,True,3,1.3971097469329834,1,
R2462,vendería,469,word,2,True,4,0.9189019203186035,1,
R2462,partiremos,470,word,2,True,4,1.285959243774414,1,
R2462,poríamos,471,word,1,True,4,1.1240429878234863,2,
R2462,lameremos,472,word,2,True,4,0.8437058925628662,1,
R2462,obraría,473,word,1,False,4,0.9369561672210693,1,
R2462,ciperíamos,474,word,1,True,4,2.7171711921691895,2,
R2462,barrerías,475,word,2,True,4,0.7490041255950928,1,
R2462,correremos,476,word,2,True,4,0.6660127639770508,1,
R2462,formarán,477,word,2,True,4,0.8511629104614258,1,
R2462,cisaban,478,word,1,True,4,0.6129810810089111,2,
R2462,lacheré,479,word,1,True,4,0.8829247951507568,2,
R2462,somerías,480,word,1,True,4,1.0911130905151367,2,
R2462,retabas,481,word,2,True,4,0.9769749641418457,1,
R2462,tosíamos,482,word,2,True,4,0.672447919845581,1,
R2462,porerás,483,word,1,True,4,1.1939749717712402,2,
R2462,rotarán,484,word,1,False,4,1.9888837337493896,1,
R2462,anrías,485,word,1,True,4,0.7306151390075684,2,
R2462,cubrirías,486,word,2,True,4,0.785466194152832,1,
R2462,cortarías,487,word,2,True,4,1.2208309173583984,1,
R2462,fanían,488,word,1,True,4,0.8529298305511475,2,
R2462,narrarían,489,word,2,True,4,0.8279280662536621,1,
R2462,bailaré,490,word,2,True,4,0.734745979309082,1,
R2462,tupliría,491,word,1,True,4,0.8640668392181396,2,
R2462,lailarás,492,word,1,True,4,0.7465348243713379,2,
R2462,frinderé,493,word,1,True,4,0.6901130676269531,2,
R2462,cuarriré,494,word,1,True,4,0.6569228172302246,2,
R2462,bimaríamos,495,word,1,True,4,1.137998104095459,2,
R2462,burraríamos,496,word,1,True,4,1.2090730667114258,2,
R2462,bigaría,497,word,1,True,4,0.7768111228942871,2,
R2462,cichiré,498,word,1,True,4,0.6340818405151367,2,
R2462,cederán,499,word,1,False,4,1.0108120441436768,1,
R2462,maftaremos,500,word,1,True,4,0.6458868980407715,2,
R2462,narrarás,501,word,2,True,4,0.7312281131744385,1,
R2462,bruvirían,502,word,1,True,4,1.174048900604248,2,
R2462,tosería,503,word,2,True,4,0.7069511413574219,1,
R2462,temería,504,word,2,True,4,1.4581389427185059,1,
R2462,hondías,505,word,1,True,4,3.242794990539551,2,
R2462,focaremos,506,word,1,True,4,0.5841281414031982,2,
R2462,cuarriríamos,507,word,1,True,4,0.8448069095611572,2,
R2462,besaré,508,word,2,True,4,1.2234292030334473,1,
R2462,bruvía,509,word,1,True,4,0.6189718246459961,2,
R2462,fundiremos,510,word,2,True,4,1.7618796825408936,1,
R2462,comería,511,word,2,True,4,0.6309840679168701,1,
R2462,comeríamos,512,word,2,True,4,0.715054988861084,1,
R2462,lachían,513,word,1,True,4,1.7677159309387207,2,
R2462,prendían,514,word,1,False,4,0.06995511054992676,1,
R2462,coseremos,515,word,2,True,4,1.4417681694030762,1,
R2462,imirá,516,word,1,True,4,0.6600220203399658,2,
R2462,arderemos,517,word,1,False,4,0.26489710807800293,1,
R2462,comerás,518,word,2,True,4,2.1570613384246826,1,
R2462,honderían,519,word,2,False,4,1.0634329319000244,2,
R2462,mordíamos,520,word,2,True,4,0.8527817726135254,1,
R2462,cipíamos,521,word,1,True,4,1.0570659637451172,2,
R2462,tupliremos,522,word,1,True,4,0.9128789901733398,2,
R2462,temían,523,word,2,True,4,0.7859411239624023,1,
R2462,prendías,524,word,2,True,4,1.3101730346679688,1,
R2462,luntías,525,word,1,True,4,0.8658697605133057,2,
R2462,barrerás,526,word,2,True,4,0.7559340000152588,1,
R2462,mertaría,527,word,1,True,4,1.159005880355835,2,
R2462,maftabas,528,word,1,True,4,0.6247470378875732,2,
R2462,gacharían,529,word,1,True,4,0.6779539585113525,2,
R2462,lailaría,530,word,1,True,4,0.5522260665893555,2,
R2462,ardería,531,word,2,True,4,0.934704065322876,1,
R2462,arderán,532,word,2,True,4,1.0019631385803223,1,
R2462,temeré,533,word,2,True,4,0.6580648422241211,1,
R2462,retaba,534,word,2,True,4,0.7099738121032715,1,
R2462,luchabas,535,word,2,True,4,1.3037259578704834,1,
R2462,chanrarías,536,word,1,True,4,0.8619368076324463,2,
R2462,focarán,537,word,1,True,4,0.9270009994506836,2,
R2462,burraremos,538,word,1,True,4,1.4149460792541504,2,
R2462,cenarán,539,word,2,True,4,0.947113037109375,1,
R2462,burrarás,540,word,1,True,4,2.234909772872925,2,
R2462,cumplirá,541,word,2,True,4,1.8421449661254883,1,
R2462,juraría,542,word,2,True,4,0.8680799007415771,1,
R2462,obrarán,543,word,1,False,4,2.185009241104126,1,
R2462,honderíamos,544,word,2,False,4,1.410059928894043,2,
R2462,cipían,545,word,1,True,4,1.8519790172576904,2,
R2462,besarán,546,word,2,True,4,0.7579891681671143,1,
R2462,eplaría,547,word,1,True,4,0.6993410587310791,2,
R2462,quijaré,548,word,1,True,4,1.3678147792816162,2,
R2462,jurarían,549,word,2,True,4,1.0719470977783203,1,
R2462,lorgaban,550,word,1,True,4,0.6873111724853516,2,
R2462,cipía,551,word,1,True,4,0.7319762706756592,2,
R2462,chanrabas,552,word,1,True,4,0.8150069713592529,2,
R2462,cetábamos,553,word,1,True,4,1.0570552349090576,2,
R2462,mardiría,554,word,1,True,4,1.1191210746765137,2,
R2462,faníamos,555,word,1,True,4,0.7107069492340088,2,
R2462,rotaré,556,word,1,False,4,1.6468122005462646,1,
R2462,sauaba,557,word,1,True,4,0.6491000652313232,2,
R2462,quijábamos,558,word,1,True,4,0.31375837326049805,2,
R2462,lacheríamos,559,word,1,True,4,1.0437371730804443,2,
R2462,lamías,560,word,2,True,4,1.0739307403564453,1,
R2462,bruvirías,561,word,1,True,4,0.6489241123199463,2,
R2462,lorgará,562,word,1,True,4,0.9638071060180664,2,
R2462,obrarás,563,word,1,False,4,0.7419040203094482,1,
R2462,seseríamos,564,word,1,True,4,0.8828651905059814,2,
R2462,fanías,565,word,1,True,4,0.778386116027832,2,
R2462,anreremos,566,word,1,True,4,1.0009527206420898,2,
R2462,eplaríamos,567,word,1,True,4,0.7379491329193115,2,
R2462,moncíamos,568,word,1,True,4,0.8149912357330322,2,
R2462,riterán,569,word,1,True,4,0.8536298274993896,2,
R2462,faneríamos,570,word,1,True,4,0.7069780826568604,2,
R2462,lailarían,571,word,1,True,4,1.5647997856140137,2,
R2462,formaríamos,572,word,1,False,4,0.9577920436859131,1,
R2462,lailaba,573,word,1,True,4,0.6442539691925049,2,
R2462,chanrarían,574,word,1,True,4,1.2269160747528076,2,
R2462,hondería,575,word,1,True,4,1.084115982055664,2,
R2462,faltará,576,word,2,True,4,1.0510289669036865,1,
R2462,cisaremos,577,word,1,True,4,0.8067688941955566,2,
R2462,mertarás,578,word,1,True,4,1.633025884628296,2,
R2462,ceteríamos,579,word,1,True,4,0.6387529373168945,2,
R2462,correré,580,word,2,True,4,0.6808509826660156,1,
R2462,lorgarán,581,word,1,True,4,0.5690832138061523,2,
R2462,tujirás,582,word,1,True,4,0.7157590389251709,2,
R2462,sumarías,583,word,2,True,4,0.9538540840148926,1,
R2462,tuplían,584,word,1,True,4,0.7020800113677979,2,
R2462,retaríamos,585,word,1,False,4,0.6908459663391113,1,
R2462,meterías,586,word,1,False,4,0.7060141563415527,1,
R2462,mardía,587,word,1,True,4,1.0629057884216309,2,
R2462,bailará,588,word,2,True,4,0.6450150012969971,1,
R2462,toserás,589,word,2,True,4,0.7940490245819092,1,
R2462,lorgarías,590,word,1,True,4,0.774036169052124,2,
R2462,subirás,591,word,2,True,4,1.061486005783081,1,
R2462,jurarás,592,word,2,True,4,0.7755231857299805,1,
R2462,charlaban,593,word,1,False,4,0.11292195320129395,1,
R2462,cichiríamos,594,word,1,True,4,0.844944953918457,2,
R2462,gachaban,595,word,1,True,4,0.9607138633728027,2,
R2462,bigaríamos,596,word,1,True,4,0.7826471328735352,2,
R2462,fanerás,597,word,1,True,4,0.8239591121673584,2,
R2462,chanrarás,598,word,1,True,4,0.601743221282959,2,
R2462,sufriríamos,599,word,2,True,4,0.7070448398590088,1,
R2462,bailarás,600,word,2,True,4,0.9695580005645752,1,
R2462,arderás,601,word,1,False,4,1.0769450664520264,1,
R2462,zusabas,602,word,1,True,4,0.937053918838501,2,
R2462,galabas,603,word,1,True,4,0.7858519554138184,2,
R2462,bailaba,604,word,2,True,4,0.8008458614349365,1,
R2462,subirían,605,word,2,True,4,0.6660678386688232,1,
R2462,zusarán,606,word,2,False,4,0.5407159328460693,2,
R2462,cefleré,607,word,1,True,4,1.175908088684082,2,
R2462,mertarían,608,word,2,False,4,1.3679697513580322,2,
R2462,ceterán,609,word,1,True,4,1.5857138633728027,2,
R2462,lachía,610,word,1,True,4,0.7548837661743164,2,
R2462,partirías,611,word,2,True,4,2.3268637657165527,1,
R2462,sumarían,612,word,2,True,4,0.7268857955932617,1,
R2462,obraríamos,613,word,1,False,4,1.3090388774871826,1,
R2462,sindarás,614,word,1,True,4,0.7621569633483887,2,
R2462,lucharán,615,word,2,True,4,0.8674590587615967,1,
R2462,bimaremos,616,word,1,True,4,1.7380249500274658,2,
R2462,cenará,617,word,2,True,4,0.8378093242645264,1,
R2462,nadabas,618,word,2,True,4,0.7239627838134766,1,
R2462,cuarrirían,619,word,1,True,4,0.766481876373291,2,
R2462,quijarías,620,word,1,True,4,0.8334338665008545,2,
R2462,besaremos,621,word,2,True,4,2.0721399784088135,1,
R2462,rayaré,622,word,2,True,4,1.230956792831421,1,
R2462,mardirás,623,word,1,True,4,1.1147263050079346,2,
R2462,cubríamos,624,word,2,True,4,4.227017879486084,1,
R2462,ceflía,625,word,1,True,5,0.8850181102752686,2,
R2462,partirán,626,word,2,True,5,0.7247569561004639,1,
R2462,metían,627,word,2,True,5,0.7509670257568359,1,
R2462,luchaban,628,word,2,True,5,0.6250660419464111,1,
R2462,sesía,629,word,1,True,5,0.7200250625610352,2,
R2462,bigarán,630,word,1,True,5,0.7100160121917725,2,
R2462,rotaríamos,631,word,1,False,5,1.3561022281646729,1,
R2462,formaremos,632,word,2,True,5,1.8896119594573975,1,
R2462,juraré,633,word,2,True,5,0.783715009689331,1,
R2462,cubriría,634,word,2,True,5,1.0529310703277588,1,
R2462,lamerías,635,word,2,True,5,0.8529341220855713,1,
R2462,mertaremos,636,word,1,True,5,1.061885118484497,2,
R2462,partirá,637,word,2,True,5,0.865990161895752,1,
R2462,sindaríamos,638,word,1,True,5,1.1108500957489014,2,
R2462,moncía,639,word,1,True,5,0.6517748832702637,2,
R2462,fanerá,640,word,1,True,5,0.5945930480957031,2,
R2462,tuplirían,641,word,1,True,5,1.051750898361206,2,
R2462,sauarán,642,word,1,True,5,0.6150050163269043,2,
R2462,narraría,643,word,1,False,5,1.8610799312591553,1,
R2462,metía,644,word,2,True,5,1.2135369777679443,1,
R2462,lucharíamos,645,word,2,True,5,0.8267779350280762,1,
R2462,zusarías,646,word,1,True,5,1.1140060424804688,2,
R2462,lacherán,647,word,1,True,5,1.0513088703155518,2,
R2462,zusaban,648,word,1,True,5,0.5539848804473877,2,
R2462,faltábamos,649,word,2,True,5,0.7466199398040771,1,
R2462,gruñiríamos,650,word,2,True,5,0.9915578365325928,1,
R2462,subiríamos,651,word,2,True,5,0.9038770198822021,1,
R2462,tupliré,652,word,1,True,5,0.9340128898620605,2,
R2462,fundías,653,word,2,True,5,1.0689542293548584,1,
R2462,formábamos,654,word,2,True,5,0.8149001598358154,1,
R2462,chanraría,655,word,1,True,5,0.7890801429748535,2,
R2462,poreremos,656,word,1,True,5,1.209986925125122,2,
R2462,pactará,657,word,1,False,5,1.3669109344482422,1,
R2462,rondará,658,word,1,False,5,0.4747629165649414,1,
R2462,rondarán,659,word,1,False,5,1.2307300567626953,1,
R2462,sauaré,660,word,1,True,5,0.7332160472869873,2,
R2462,formarías,661,word,2,True,5,1.3799259662628174,1,
R2462,bimaba,662,word,1,True,5,1.1826953887939453,2,
R2462,cortarás,663,word,2,True,5,1.4220809936523438,1,
R2462,charlábamos,664,word,1,False,5,0.8989109992980957,1,
R2462,focábamos,665,word,1,True,5,1.2849268913269043,2,
R2462,zusará,666,word,1,True,5,0.6471099853515625,2,
R2462,mertaré,667,word,1,True,5,0.8578801155090332,2,
R2462,cetarías,668,word,1,True,5,0.6711046695709229,2,
R2462,cortaríamos,669,word,2,True,5,0.8860831260681152,1,
R2462,bailaban,670,word,2,True,5,0.6874690055847168,1,
R2462,partían,671,word,2,True,5,1.7310080528259277,1,
R2462,cetaría,672,word,1,True,5,1.3269970417022705,2,
R2462,cichirías,673,word,1,True,5,0.9058322906494141,2,
R2462,lailarán,674,word,1,True,5,0.8141522407531738,2,
R2462,lamería,675,word,2,True,5,0.8769779205322266,1,
R2462,mertaba,676,word,1,True,5,0.7129616737365723,2,
R2462,prenderé,677,word,2,True,5,1.530824899673462,1,
R2462,cortábamos,678,word,2,True,5,0.8839049339294434,1,
R2462,frinderíamos,679,word,1,True,5,0.9935450553894043,2,
R2462,somían,680,word,1,True,5,0.8058691024780273,2,
R2462,formaría,681,word,2,True,5,2.507889986038208,1,
R2462,rimaban,682,word,2,True,5,0.6270530223846436,1,
R2462,tujirá,683,word,1,True,5,0.6589641571044922,2,
R2462,tujías,684,word,1,True,5,0.6140139102935791,2,
R2462,pavaría,685,word,1,True,5,0.5918550491333008,2,
R2462,ciperé,686,word,1,True,5,0.5228512287139893,2,
R2462,bailarán,687,word,2,True,5,0.6752262115478516,1,
R2462,zusarían,688,word,1,True,5,0.620927095413208,2,
R2462,bailaremos,689,word,2,True,5,1.5818989276885986,1,
R2462,rondarías,690,word,2,True,5,0.8789520263671875,1,
R2462,cedías,691,word,1,False,5,1.252427101135254,1,
R2462,cetarían,692,word,1,True,5,1.0339641571044922,2,
R2462,runaba,693,word,1,True,5,0.7459797859191895,2,
R2462,besará,694,word,2,True,5,0.6950421333312988,1,
R2462,cuarriría,695,word,1,True,5,0.768761157989502,2,
R2462,mordería,696,word,2,True,5,0.7091200351715088,1,
R2462,prenderías,697,word,2,True,5,0.766970157623291,1,
R2462,ceflerían,698,word,1,True,5,0.7760987281799316,2,
R2462,arderías,699,word,2,True,5,1.6587209701538086,1,
R2462,gacharíamos,700,word,1,True,5,0.9910998344421387,2,
R2462,cubrías,701,word,2,True,5,1.6499810218811035,1,
R2462,bruvirá,702,word,1,True,5,0.8561899662017822,2,
R2462,rimaré,703,word,2,True,5,0.9412078857421875,1,
R2462,anríamos,704,word,1,True,5,1.147993803024292,2,
R2462,moncías,705,word,1,True,5,0.7651159763336182,2,
R2462,coseré,706,word,2,True,5,2.721039056777954,1,
R2462,rayaremos,707,word,2,True,5,0.6604530811309814,1,
R2462,casarías,708,word,2,True,5,0.6541280746459961,1,
R2462,correrá,709,word,2,True,5,1.5472471714019775,1,
R2462,tosías,710,word,2,True,5,0.6841030120849609,1,
R2462,zusaría,711,word,1,True,5,0.9571647644042969,2,
R2462,gruñirán,712,word,2,True,5,0.7460949420928955,1,
R2462,pactabas,713,word,1,False,5,0.9242198467254639,1,
R2462,pactarás,714,word,1,False,5,0.6247458457946777,1,
R2462,retaremos,715,word,2,True,5,0.6732749938964844,1,
R2462,burrábamos,716,word,2,False,5,2.2662689685821533,2,
R2462,nadaríamos,717,word,2,True,5,1.5282659530639648,1,
R2462,anrería,718,word,1,True,5,0.846397876739502,2,
R2462,chanraré,719,word,1,True,5,0.5853638648986816,2,
R2462,barría,720,word,2,True,5,0.7893049716949463,1,
R2462,cenaríamos,721,word,1,False,5,0.8819329738616943,1,
R2462,besarías,722,word,1,False,5,0.05015707015991211,1,
R2462,bigará,723,word,1,True,5,0.7520439624786377,2,
R2462,nadarían,724,word,2,True,5,0.7582001686096191,1,
R2462,meterán,725,word,2,True,5,1.140113115310669,1,
R2462,cetaba,726,word,1,True,5,0.7680518627166748,2,
R2462,venderán,727,word,2,True,5,0.798253059387207,1,
R2462,seserían,728,word,1,True,5,0.9412617683410645,2,
R2462,porerá,729,word,1,True,5,0.7071108818054199,2,
R2462,casarían,730,word,2,True,5,1.0770511627197266,1,
R2462,quemabas,731,word,2,True,5,0.7298390865325928,1,
R2462,luchará,732,word,2,True,5,0.7540299892425537,1,
R2462,casaría,733,word,2,True,5,0.6917397975921631,1,
R2462,lailaban,734,word,1,True,5,0.8128359317779541,2,
R2462,gruñiré,735,word,2,True,5,0.8159880638122559,1,
R2462,morderás,736,word,2,True,5,0.756767988204956,1,
R2462,quemaríamos,737,word,2,True,5,0.884880781173706,1,
R2462,sindábamos,738,word,1,True,5,0.8138699531555176,2,
R2462,cortarían,739,word,2,True,5,1.2399451732635498,1,
R2462,nadará,740,word,2,True,5,0.7449359893798828,1,
R2462,sufrirá,741,word,2,True,5,0.7350180149078369,1,
R2462,ciperá,742,word,1,True,5,0.7661259174346924,2,
R2462,barrías,743,word,2,True,5,0.6890969276428223,1,
R2462,frinderías,744,word,1,True,5,0.6100289821624756,2,
R2462,pactarán,745,word,1,False,5,0.7959930896759033,1,
R2462,poría,746,word,1,True,5,0.7977211475372314,2,
R2462,honderá,747,word,1,True,5,0.6620509624481201,2,
R2462,mardirías,748,word,1,True,5,1.693011999130249,2,
R2462,maftaba,749,word,1,True,5,0.843015193939209,2,
R2462,lailaré,750,word,1,True,5,0.6108860969543457,2,
R2462,cisarán,751,word,1,True,5,0.5779657363891602,2,
R2462,eplaba,752,word,1,True,5,0.5779762268066406,2,
R2462,bimarías,753,word,1,True,5,0.5782718658447266,2,
R2462,mardirán,754,word,1,True,5,1.4050729274749756,2,
R2462,bimaré,755,word,1,True,5,3.158046245574951,2,
R2462,rotábamos,756,word,2,True,5,0.7638840675354004,1,
R2462,anreré,757,word,1,True,5,0.6398952007293701,2,
R2462,maftarán,758,word,1,True,5,0.6109869480133057,2,
R2462,partirás,759,word,2,True,5,1.1283929347991943,1,
R2462,rayaríamos,760,word,2,True,5,0.7559809684753418,1,
R2462,meterás,761,word,2,True,5,0.9779977798461914,1,
R2462,cichía,762,word,1,True,5,0.6651148796081543,2,
R2462,rimarán,763,word,2,True,5,0.7819268703460693,1,
R2462,cortaría,764,word,2,True,5,0.7541191577911377,1,
R2462,sindará,765,word,1,True,5,0.6527678966522217,2,
R2462,moncerás,766,word,1,True,5,0.7409989833831787,2,
R2462,eplábamos,767,word,1,True,5,0.6801457405090332,2,
R2462,riteré,768,word,1,True,5,0.780958890914917,2,
R2462,morderemos,769,word,2,True,5,0.6968607902526855,1,
R2462,luchábamos,770,word,2,True,5,0.7099790573120117,1,
R2462,cisaré,771,word,1,True,5,0.5890419483184814,2,
R2462,vultaba,772,word,1,True,5,0.6703031063079834,2,
R2462,cederíamos,773,word,1,False,5,0.6850299835205078,1,
R2462,cenabas,774,word,2,True,5,0.7908737659454346,1,
R2462,sumará,775,word,2,True,5,1.435840129852295,1,
R2462,fundía,776,word,2,True,5,0.7841601371765137,1,
R2462,gruñiremos,777,word,2,True,5,0.6708488464355469,1,
R2462,riteríamos,778,word,1,True,5,1.1109809875488281,2,
R2462,sindarías,779,word,1,True,5,1.4005119800567627,2,
R2462,sindarán,780,word,1,True,5,0.5869109630584717,2,
R2462,correrían,781,word,2,True,6,0.8168179988861084,1,
R2462,temías,782,word,2,True,6,0.6774837970733643,1,
R2462,partiríamos,783,word,2,True,6,0.746074914932251,1,
R2462,bigarías,784,word,1,True,6,0.7730259895324707,2,
R2462,charlarán,785,word,1,False,6,0.9109480381011963,1,
R2462,tuplirías,786,word,1,True,6,1.1601428985595703,2,
R2462,eplarás,787,word,1,True,6,0.7598767280578613,2,
R2462,maftaría,788,word,1,True,6,0.6830539703369141,2,
R2462,vultaría,789,word,1,True,6,0.5560200214385986,2,
R2462,casaban,790,word,2,True,6,0.7398459911346436,1,
R2462,cenarían,791,word,2,True,6,1.427893877029419,1,
R2462,burrarán,792,word,1,True,6,1.1090071201324463,2,
R2462,tujiremos,793,word,1,True,6,0.7398350238800049,2,
R2462,luntirían,794,word,1,True,6,0.9658589363098145,2,
R2462,tuplirás,795,word,1,True,6,0.6351251602172852,2,
R2462,faltaban,796,word,2,True,6,0.6773660182952881,1,
R2462,cuarrirías,797,word,1,True,6,0.8680241107940674,2,
R2462,sauaban,798,word,1,True,6,0.675178050994873,2,
R2462,poreré,799,word,1,True,6,1.0319850444793701,2,
R2462,galarás,800,word,1,True,6,1.078679084777832,2,
R2462,fanería,801,word,1,True,6,0.8868799209594727,2,
R2462,cetarás,802,word,1,True,6,0.9449100494384766,2,
R2462,venderás,803,word,2,True,6,0.984367847442627,1,
R2462,rondabas,804,word,2,True,6,0.9540359973907471,1,
R2462,zusaremos,805,word,1,True,6,1.0989429950714111,2,
R2462,juraríamos,806,word,2,True,6,0.7998600006103516,1,
R2462,ardías,807,word,2,True,6,1.021054983139038,1,
R2462,luntirás,808,word,1,True,6,1.8398029804229736,2,
R2462,jurarán,809,word,2,True,6,0.995070219039917,1,
R2462,tuplirá,810,word,1,True,6,0.7599911689758301,2,
R2462,chanraríamos,811,word,1,True,6,0.654926061630249,2,
R2462,uniremos,812,word,2,True,6,0.835503101348877,1,
R2462,subía,813,word,2,True,6,0.7277441024780273,1,
R2462,lamía,814,word,2,True,6,0.7879419326782227,1,
R2462,vultarán,815,word,1,True,6,0.8227949142456055,2,
R2462,rayará,816,word,2,True,6,1.1118059158325195,1,
R2462,casabas,817,word,2,True,6,0.62496018409729,1,
R2462,sauarías,818,word,1,True,6,0.6909351348876953,2,
R2462,bigábamos,819,word,1,True,6,0.6338138580322266,2,
R2462,lameré,820,word,2,True,6,0.810905933380127,1,
R2462,juraremos,821,word,2,True,6,1.186093807220459,1,
R2462,bimarían,822,word,1,True,6,0.7699129581451416,2,
R2462,meterá,823,word,2,True,6,1.163869857788086,1,
R2462,runarías,824,word,1,True,6,0.7481248378753662,2,
R2462,rimaríamos,825,word,1,False,6,2.139678955078125,1,
R2462,burrabas,826,word,1,True,6,0.7180678844451904,2,
R2462,comeré,827,word,2,True,6,0.7109909057617188,1,
R2462,porerían,828,word,1,True,6,1.9999890327453613,2,
R2462,chanraremos,829,word,1,True,6,1.7159721851348877,2,
R2462,cetías,830,word,1,True,6,8.348132848739624,2,
R2462,ardían,831,word,2,True,6,1.0549190044403076,1,
R2462,burrará,832,word,1,True,6,1.6298377513885498,2,
R2462,gacharías,833,word,1,True,6,0.8150858879089355,2,
R2462,anrerá,834,word,1,True,6,0.6819212436676025,2,
R2462,bailarían,835,word,2,True,6,0.7309491634368896,1,
R2462,maftaré,836,word,1,True,6,0.7231090068817139,2,
R2462,coserás,837,word,2,True,6,0.7388379573822021,1,
R2462,temerás,838,word,2,True,6,0.854088306427002,1,
R2462,vultábamos,839,word,1,True,6,0.8400070667266846,2,
R2462,ceflerá,840,word,1,True,6,0.7719240188598633,2,
R2462,tuplías,841,word,1,True,6,0.554779052734375,2,
R2462,maftaríamos,842,word,1,True,6,0.6779379844665527,2,
R2462,quijaríamos,843,word,1,True,6,0.5847961902618408,2,
R2462,pavarían,844,word,1,True,6,0.6968598365783691,2,
R2462,cetíamos,845,word,1,True,6,0.736983060836792,2,
R2462,fundíamos,846,word,1,False,6,2.0557312965393066,1,
R2462,fundirías,847,word,2,True,6,0.8670108318328857,1,
R2462,someré,848,word,1,True,6,1.3458240032196045,2,
R2462,subiré,849,word,2,True,6,0.839055061340332,1,
R2462,bailábamos,850,word,2,True,6,0.7141649723052979,1,
R2462,rayarías,851,word,2,True,6,0.9369988441467285,1,
R2462,mordías,852,word,2,True,6,0.7148118019104004,1,
R2462,retarán,853,word,2,True,6,0.9110710620880127,1,
R2462,lailarías,854,word,1,True,6,0.7448301315307617,2,
R2462,monceremos,855,word,1,True,6,0.71878981590271,2,
R2462,sufrirían,856,word,2,True,6,1.052042007446289,1,
R2462,charlaré,857,word,2,True,6,0.7442178726196289,1,
R2462,nadaría,858,word,2,True,6,1.0447747707366943,1,
R2462,quijabas,859,word,1,True,6,0.7329239845275879,2,
R2462,arderían,860,word,2,True,6,0.9259161949157715,1,
R2462,runabas,861,word,1,True,6,1.1278650760650635,2,
R2462,lucharías,862,word,2,True,6,0.7449190616607666,1,
R2462,gachabas,863,word,1,True,6,0.8180248737335205,2,
R2462,riterá,864,word,1,True,6,1.3648128509521484,2,
R2462,imiríamos,865,word,1,True,6,1.0169920921325684,2,
R2462,besarás,866,word,2,True,6,0.74871826171875,1,
R2462,narrará,867,word,2,True,6,0.9049363136291504,1,
R2462,rondarás,868,word,1,False,6,1.6519439220428467,1,
R2462,rondaría,869,word,1,False,6,0.7295129299163818,1,
R2462,ritías,870,word,1,True,6,0.8269059658050537,2,
R2462,lachíamos,871,word,1,True,6,0.92702317237854,2,
R2462,quemaremos,872,word,2,True,6,1.0549540519714355,1,
R2462,pavaré,873,word,1,True,6,0.7259318828582764,2,
R2462,runaría,874,word,1,True,6,0.6431937217712402,2,
R2462,ceflían,875,word,1,True,6,0.841893196105957,2,
R2462,uníamos,876,word,2,True,6,0.9118289947509766,1,
R2462,lucharás,877,word,2,True,6,0.8229691982269287,1,
R2462,subirías,878,word,2,True,6,0.7987430095672607,1,
R2462,somíamos,879,word,1,True,6,0.9087097644805908,2,
R2462,anrerías,880,word,1,True,6,0.7809946537017822,2,
R2462,bimaban,881,word,1,True,6,0.7688169479370117,2,
R2462,frinderían,882,word,1,True,6,0.8058598041534424,2,
R2462,frindía,883,word,1,True,6,0.8532111644744873,2,
R2462,ardía,884,word,2,True,6,1.2007520198822021,1,
R2462,runaríamos,885,word,1,True,6,0.9477219581604004,2,
R2462,venderemos,886,word,2,True,6,1.3295927047729492,1,
R2462,rimará,887,word,2,True,6,1.174868106842041,1,
R2462,cosíamos,888,word,2,True,6,0.9638750553131104,1,
R2462,somerás,889,word,1,True,6,0.7290880680084229,2,
R2462,casarán,890,word,2,True,6,0.8027162551879883,1,
R2462,fundirás,891,word,1,False,6,0.8009300231933594,1,
R2462,faltarías,892,word,2,True,6,2.767167806625366,1,
R2462,tuplíamos,893,word,1,True,6,0.8387641906738281,2,
R2462,quemábamos,894,word,2,True,6,0.7427628040313721,1,
R2462,maftábamos,895,word,1,True,6,0.784080982208252,2,
R2462,cortaremos,896,word,2,True,6,0.8379440307617188,1,
R2462,lucharían,897,word,2,True,6,1.2478227615356445,1,
R2462,correría,898,word,2,True,6,0.673015832901001,1,
R2462,moncerán,899,word,1,True,6,0.8439569473266602,2,
R2462,somerán,900,word,1,True,6,0.6919820308685303,2,
R2462,burraré,901,word,1,True,6,0.7306981086730957,2,
R2462,cedíamos,902,word,1,False,6,2.260836124420166,1,
R2462,morderé,903,word,2,True,6,0.978065013885498,1,
R2462,rotaban,904,word,2,True,6,0.8771638870239258,1,
R2462,ceflerás,905,word,1,True,6,1.028977870941162,2,
R2462,prenderíamos,906,word,2,True,6,1.4161171913146973,1,
R2462,imirían,907,word,1,True,6,0.9699709415435791,2,
R2462,quemaba,908,word,2,True,6,0.761707067489624,1,
R2462,imiremos,909,word,1,True,6,1.4349009990692139,2,
R2462,imirás,910,word,2,False,6,1.5931849479675293,2,
R2462,lailabas,911,word,1,True,6,0.746715784072876,2,
R2462,pavaba,912,word,1,True,6,0.6749129295349121,2,
R2462,cumplirán,913,word,2,True,6,0.8210330009460449,1,
R2462,runaré,914,word,1,True,6,0.7479650974273682,2,
R2462,cenarías,915,word,1,False,6,0.7700221538543701,1,
R2462,ceflíamos,916,word,1,True,6,0.8500421047210693,2,
R2462,besabas,917,word,2,True,6,0.8981781005859375,1,
R2462,focaría,918,word,1,True,6,0.8027689456939697,2,
R2462,burraba,919,word,1,True,6,0.81992506980896,2,
R2462,chanraban,920,word,1,True,6,0.6805980205535889,2,
R2462,retarían,921,word,1,False,6,1.2077841758728027,1,
R2462,casará,922,word,2,True,6,0.857996940612793,1,
R2462,gruñirás,923,word,2,True,6,1.8439750671386719,1,
R2462,sindaba,924,word,1,True,6,1.6852169036865234,2,
R2462,zusaré,925,word,1,True,6,0.6198441982269287,2,
R2462,ceflerán,926,word,2,False,6,0.6878929138183594,2,
R2462,vultaremos,927,word,1,True,6,1.047118902206421,2,
R2462,cortaba,928,word,2,True,6,0.7936398983001709,1,
R2462,ciperemos,929,word,1,True,6,1.4320311546325684,2,
R2462,lameríamos,930,word,2,True,6,0.7980670928955078,1,
R2462,vultaré,931,word,1,True,6,0.7548561096191406,2,
R2462,frindían,932,word,1,True,6,0.7428791522979736,2,
R2462,lacheremos,933,word,1,True,6,0.846121072769165,2,
R2462,ceteremos,934,word,1,True,6,0.8489148616790771,2,
R2462,cisarás,935,word,1,True,6,0.6638526916503906,2,
R2462,chanrará,936,word,1,True,6,0.6809909343719482,2,
R2462,cichirán,937,word,1,True,7,0.8380179405212402,2,
R2462,sufriría,938,word,2,True,7,0.8219819068908691,1,
R2462,gacharás,939,word,1,True,7,0.7289721965789795,2,
R2462,someríamos,940,word,1,True,7,0.9160699844360352,2,
R2462,focaríamos,941,word,1,True,7,0.6998493671417236,2,
R2462,cenaría,942,word,2,True,7,1.0309691429138184,1,
R2462,pactarían,943,word,1,False,7,1.1660687923431396,1,
R2462,mertaban,944,word,1,True,7,1.043868064880371,2,
R2462,maftarían,945,word,1,True,7,0.8739237785339355,2,
R2462,lacherían,946,word,1,True,7,0.8487727642059326,2,
R2462,gruñirías,947,word,2,True,7,0.8102331161499023,1,
R2462,mardiremos,948,word,1,True,7,1.0568110942840576,2,
R2462,luntiré,949,word,1,True,7,0.9621057510375977,2,
R2462,zusaríamos,950,word,1,True,7,0.6698591709136963,2,
R2462,cisaba,951,word,1,True,7,0.6810972690582275,2,
R2462,comerá,952,word,2,True,7,0.7540059089660645,1,
R2462,honderé,953,word,2,False,7,1.0417709350585938,2,
R2462,pactaré,954,word,1,False,7,1.5539710521697998,1,
R2462,sindaría,955,word,1,True,7,1.2389740943908691,2,
R2462,mardirá,956,word,1,True,7,2.2779219150543213,2,
R2462,jurarías,957,word,2,True,7,0.7947490215301514,1,
R2462,sufrías,958,word,2,True,7,0.7071008682250977,1,
R2462,faltabas,959,word,2,True,7,0.7177159786224365,1,
R2462,honderemos,960,word,1,True,7,1.1550519466400146,2,
R2462,moncerías,961,word,1,True,7,0.8560972213745117,2,
R2462,fundiré,962,word,2,True,7,1.4410622119903564,1,
R2462,narrarías,963,word,2,True,7,0.7658789157867432,1,
R2462,sindarían,964,word,1,True,7,0.8231441974639893,2,
R2462,lailará,965,word,1,True,7,0.7047770023345947,2,
R2462,burraban,966,word,1,True,7,1.333846092224121,2,
R2462,ceflerías,967,word,1,True,7,1.4342820644378662,2,
R2462,temeremos,968,word,1,False,7,0.7576680183410645,1,
R2462,besábamos,969,word,2,True,7,0.6020331382751465,1,
R2462,venderían,970,word,2,True,7,0.6529700756072998,1,
R2462,cortarán,971,word,2,True,7,0.7028851509094238,1,
R2462,bruvías,972,word,1,True,7,0.7289659976959229,2,
R2462,partíamos,973,word,2,True,7,0.691133975982666,1,
R2462,vultaríamos,974,word,1,True,7,0.6858108043670654,2,
R2462,faltaría,975,word,2,True,7,0.8629231452941895,1,
R2462,rayarán,976,word,2,True,7,0.8619570732116699,1,
R2462,tosían,977,word,2,True,7,0.7880480289459229,1,
R2462,rondaban,978,word,1,False,7,2.666168212890625,1,
R2462,rayabas,979,word,2,True,7,0.830970048904419,1,
R2462,pavarán,980,word,1,True,7,1.4368162155151367,2,
R2462,cisarían,981,word,1,True,7,0.6681087017059326,2,
R2462,formaba,982,word,2,True,7,0.7778339385986328,1,
R2462,ceterás,983,word,1,True,7,1.0428640842437744,2,
R2462,narrarán,984,word,1,False,7,0.9070069789886475,1,
R2462,eplará,985,word,1,True,7,0.749755859375,2,
R2462,sumabas,986,word,2,True,7,0.973376989364624,1,
R2462,meterían,987,word,2,True,7,1.0458288192749023,1,
R2462,prenderás,988,word,2,True,7,1.0087580680847168,1,
R2462,bruviremos,989,word,1,True,7,0.7639219760894775,2,
R2462,ceterías,990,word,1,True,7,0.806922197341919,2,
R2462,obraré,991,word,1,False,7,1.4087879657745361,1,
R2462,subían,992,word,2,True,7,0.9422149658203125,1,
R2462,barríamos,993,word,2,True,7,0.729982852935791,1,
R2462,luntiría,994,word,1,True,7,0.8250329494476318,2,
R2462,rimarás,995,word,2,True,7,1.0620999336242676,1,
R2462,coserán,996,word,2,True,7,0.8400938510894775,1,
R2462,coserían,997,word,2,True,7,0.7729041576385498,1,
R2462,cuarría,998,word,1,True,7,0.8137178421020508,2,
R2462,porerías,999,word,1,True,7,1.1739120483398438,2,
R2462,charlaremos,1000,word,1,False,7,0.8267021179199219,1,
R2462,cederían,1001,word,1,False,7,0.672760009765625,1,
R2462,prenderían,1002,word,2,True,7,0.7740778923034668,1,
R2462,zusarás,1003,word,1,True,7,0.6649022102355957,2,
R2462,cortabas,1004,word,2,True,7,0.7019257545471191,1,
R2462,gruñían,1005,word,2,True,7,0.830963134765625,1,
R2462,unirían,1006,word,2,True,7,1.3479716777801514,1,
R2462,ceterá,1007,word,1,True,7,1.078089952468872,2,
R2462,ceteré,1008,word,1,True,7,0.6800210475921631,2,
R2462,subiría,1009,word,2,True,7,1.0907318592071533,1,
R2462,obraban,1010,word,1,False,7,0.814857006072998,1,
R2462,lamerán,1011,word,2,True,7,0.9740710258483887,1,
R2462,tujiría,1012,word,1,True,7,0.8952000141143799,2,
R2462,uniríamos,1013,word,2,True,7,0.7777159214019775,1,
R2462,cumplirían,1014,word,2,True,7,0.7681629657745361,1,
R2462,runaremos,1015,word,1,True,7,0.960759162902832,2,
R2462,retaré,1016,word,1,False,7,0.8499710559844971,1,
R2462,temerían,1017,word,2,True,7,1.1869807243347168,1,
R2462,galaba,1018,word,1,True,7,1.2327549457550049,2,
R2462,charlaría,1019,word,1,False,7,2.1991958618164062,1,
R2462,lorgaríamos,1020,word,1,True,7,0.860806941986084,2,
R2462,honderán,1021,word,2,False,7,1.4828758239746094,2,
R2462,formarás,1022,word,2,True,7,0.9818692207336426,1,
R2462,imían,1023,word,1,True,7,0.869175910949707,2,
R2462,tuplía,1024,word,1,True,7,0.8067948818206787,2,
R2462,mardiríamos,1025,word,1,True,7,0.8040599822998047,2,
R2462,charlará,1026,word,1,False,7,0.861983060836792,1,
R2462,retará,1027,word,2,True,7,1.161005973815918,1,
R2462,pavábamos,1028,word,1,True,7,0.9109041690826416,2,
R2462,galarían,1029,word,1,True,7,0.8910329341888428,2,
R2462,arderíamos,1030,word,2,True,7,0.8459091186523438,1,
R2462,quemaban,1031,word,2,True,7,0.7309699058532715,1,
R2462,juraba,1032,word,2,True,7,0.8588590621948242,1,
R2462,cichíamos,1033,word,1,True,7,1.395853042602539,2,
R2462,mordía,1034,word,2,True,7,1.2711751461029053,1,
R2462,fanerán,1035,word,1,True,7,0.8850078582763672,2,
R2462,pavaríamos,1036,word,1,True,7,1.0057268142700195,2,
R2462,mertabas,1037,word,1,True,7,0.9070932865142822,2,
R2462,bruviré,1038,word,1,True,7,0.7379100322723389,2,
R2462,cichías,1039,word,1,True,7,0.879962682723999,2,
R2462,galaban,1040,word,1,True,7,0.8451049327850342,2,
R2462,toserían,1041,word,2,True,7,1.0498900413513184,1,
R2462,runarían,1042,word,1,True,7,0.9580979347229004,2,
R2462,barreré,1043,word,2,True,7,0.7030127048492432,1,
R2462,unían,1044,word,2,True,7,1.1891260147094727,1,
R2462,temerá,1045,word,2,True,7,0.8658943176269531,1,
R2462,zusábamos,1046,word,1,True,7,0.6778199672698975,2,
R2462,imías,1047,word,1,True,7,0.6269261837005615,2,
R2462,meteré,1048,word,1,False,7,0.9058709144592285,1,
R2462,burraría,1049,word,1,True,7,1.0641288757324219,2,
R2462,bimará,1050,word,1,True,7,0.7949318885803223,2,
R2462,lacherás,1051,word,1,True,7,0.6375789642333984,2,
R2462,unirás,1052,word,2,True,7,0.7340848445892334,1,
R2462,venderá,1053,word,2,True,7,1.129972219467163,1,
R2462,casarás,1054,word,2,True,7,3.5799920558929443,1,
R2462,correrás,1055,word,2,True,7,0.6389157772064209,1,
R2462,riteremos,1056,word,1,True,7,0.7977621555328369,2,
R2462,cumplíamos,1057,word,2,True,7,0.6530649662017822,1,
R2462,pavaremos,1058,word,1,True,7,0.7099621295928955,2,
R2462,poreríamos,1059,word,1,True,7,0.9776272773742676,2,
R2462,venderías,1060,word,2,True,7,0.7489447593688965,1,
R2462,frindías,1061,word,1,True,7,0.8408999443054199,2,
R2462,narrabas,1062,word,2,True,7,1.8528697490692139,1,
R2462,burrarían,1063,word,1,True,7,0.9008677005767822,2,
R2462,eplabas,1064,word,1,True,7,1.7489421367645264,2,
R2462,retaría,1065,word,2,True,7,2.3430471420288086,1,
R2462,faltarás,1066,word,2,True,7,0.6019473075866699,1,
R2462,galaría,1067,word,1,True,7,0.6965610980987549,2,
R2462,quijaba,1068,word,1,True,7,1.2429566383361816,2,
R2462,vultabas,1069,word,1,True,7,0.9429192543029785,2,
R2462,luntíamos,1070,word,1,True,7,2.304034948348999,2,
R2462,bigarás,1071,word,1,True,7,0.7244729995727539,2,
R2462,subirá,1072,word,2,True,7,0.7049012184143066,1,
R2462,fundiría,1073,word,2,True,7,1.3286147117614746,1,
R2462,quemarán,1074,word,2,True,7,0.8539190292358398,1,
R2462,eplarán,1075,word,1,True,7,0.9629178047180176,2,
R2462,arderé,1076,word,2,True,7,0.8689038753509521,1,
R2462,cederías,1077,word,1,False,7,1.2296578884124756,1,
R2462,quijarás,1078,word,1,True,7,1.2239511013031006,2,
R2462,maftarás,1079,word,1,True,7,0.9869790077209473,2,
R2462,focarás,1080,word,1,True,7,0.6652028560638428,2,
R2462,eplarías,1081,word,1,True,7,0.6035909652709961,2,
R2462,ritían,1082,word,1,True,7,0.8681240081787109,2,
R2462,partiré,1083,word,2,True,7,1.1557869911193848,1,
R2462,cisará,1084,word,1,True,7,0.7559518814086914,2,
R2462,unirá,1085,word,2,True,7,0.7951281070709229,1,
R2462,rotaba,1086,word,2,True,7,1.1561768054962158,1,
R2462,moncería,1087,word,1,True,7,0.9003262519836426,2,
R2462,comeremos,1088,word,2,True,7,1.3501009941101074,1,
R2462,besaban,1089,word,2,True,7,0.8269109725952148,1,
R2462,ardíamos,1090,word,2,True,7,0.8887989521026611,1,
R2462,porían,1091,word,1,True,7,0.8814241886138916,2,
R2462,lamerás,1092,word,2,True,7,0.8088932037353516,1,
