participant,stimuli,trialNum,target_type,response,correct,block,reaction_time,trigger,
R2474,lamerán,1,word,2,True,1,1.7005929946899414,1,
R2474,frinderían,2,word,2,False,1,1.9829988479614258,2,
R2474,maftaré,3,word,1,True,1,1.3831307888031006,2,
R2474,sumarán,4,word,2,True,1,0.856881856918335,1,
R2474,retará,5,word,2,True,1,0.6919317245483398,1,
R2474,faltarás,6,word,2,True,1,1.3024098873138428,1,
R2474,retaba,7,word,2,True,1,0.9990026950836182,1,
R2474,frinderán,8,word,1,True,1,1.069861888885498,2,
R2474,tujías,9,word,1,True,1,1.6821911334991455,2,
R2474,rondábamos,10,word,2,True,1,1.6051709651947021,1,
R2474,eplábamos,11,word,1,True,1,1.5030038356781006,2,
R2474,coseremos,12,word,2,True,1,1.6138739585876465,1,
R2474,cubriríamos,13,word,2,True,1,1.1847751140594482,1,
R2474,pactará,14,word,2,True,1,1.3739252090454102,1,
R2474,bimarás,15,word,1,True,1,1.5669770240783691,2,
R2474,luchabas,16,word,2,True,1,0.8289480209350586,1,
R2474,sindaremos,17,word,2,False,1,1.182992935180664,2,
R2474,sesían,18,word,1,True,1,1.010688066482544,2,
R2474,cederá,19,word,2,True,1,0.9888522624969482,1,
R2474,rimaríamos,20,word,2,True,1,1.7769711017608643,1,
R2474,temería,21,word,2,True,1,0.8387470245361328,1,
R2474,focarías,22,word,2,False,1,0.7467679977416992,2,
R2474,zusaré,23,word,1,True,1,0.7211079597473145,2,
R2474,narraba,24,word,2,True,1,1.4700212478637695,1,
R2474,imiré,25,word,1,True,1,1.116344928741455,2,
R2474,riterás,26,word,2,False,1,1.1719019412994385,2,
R2474,cubriré,27,word,2,True,1,0.7957451343536377,1,
R2474,retarás,28,word,2,True,1,0.8078567981719971,1,
R2474,formaríamos,29,word,2,True,1,1.5429308414459229,1,
R2474,pactaríamos,30,word,2,True,1,0.7257709503173828,1,
R2474,sufría,31,word,2,True,1,0.9461960792541504,1,
R2474,rayarían,32,word,2,True,1,0.8008620738983154,1,
R2474,metían,33,word,2,True,1,1.1154499053955078,1,
R2474,burrarías,34,word,1,True,1,1.9418890476226807,2,
R2474,sauaremos,35,word,1,True,1,1.060866117477417,2,
R2474,zusaremos,36,word,1,True,1,1.2538228034973145,2,
R2474,ciperíamos,37,word,1,True,1,1.5969500541687012,2,
R2474,faneré,38,word,1,True,1,1.97176194190979,2,
R2474,lorgaré,39,word,2,False,1,0.7741398811340332,2,
R2474,hondían,40,word,2,False,1,0.7801449298858643,2,
R2474,mordería,41,word,2,True,1,1.392782211303711,1,
R2474,metíamos,42,word,2,True,1,1.383997917175293,1,
R2474,lamería,43,word,2,True,1,1.0520870685577393,1,
R2474,tosía,44,word,2,True,1,1.120812177658081,1,
R2474,bimarán,45,word,1,True,1,0.8159050941467285,2,
R2474,porías,46,word,1,True,1,1.3990888595581055,2,
R2474,hondías,47,word,2,False,1,1.6519489288330078,2,
R2474,charlabas,48,word,2,True,1,0.7858328819274902,1,
R2474,runaríamos,49,word,1,True,1,1.5417351722717285,2,
R2474,quijaríamos,50,word,p,False,1,185.5212721824646,2,
R2474,fanerían,51,word,1,True,1,2.473477840423584,2,
R2474,subiremos,52,word,2,True,1,1.4669091701507568,1,
R2474,nadaría,53,word,2,True,1,1.3673679828643799,1,
R2474,cisábamos,54,word,1,True,1,1.0468769073486328,2,
R2474,eplaré,55,word,1,True,1,1.0187020301818848,2,
R2474,mordíamos,56,word,2,True,1,1.40299391746521,1,
R2474,jurará,57,word,2,True,1,0.7849647998809814,1,
R2474,obraríamos,58,word,2,True,1,1.2528181076049805,1,
R2474,rondaremos,59,word,2,True,1,1.6439030170440674,1,
R2474,temerían,60,word,2,True,1,0.6738409996032715,1,
R2474,bailará,61,word,2,True,1,0.6684291362762451,1,
R2474,lailaría,62,word,1,True,1,1.139415979385376,2,
R2474,maftarías,63,word,1,True,1,1.6279699802398682,2,
R2474,moncerían,64,word,1,True,1,1.4739999771118164,2,
R2474,casabas,65,word,2,True,1,0.561053991317749,1,
R2474,quijaban,66,word,2,False,1,1.2457528114318848,2,
R2474,obraba,67,word,1,False,1,2.449910879135132,1,
R2474,toserías,68,word,2,True,1,0.7836480140686035,1,
R2474,ceterán,69,word,1,True,1,0.9538037776947021,2,
R2474,chanraban,70,word,1,True,1,1.1475849151611328,2,
R2474,retarían,71,word,2,True,1,0.7338991165161133,1,
R2474,rotaba,72,word,2,True,1,0.5987799167633057,1,
R2474,cortaré,73,word,2,True,1,1.2778730392456055,1,
R2474,meterían,74,word,2,True,1,0.8478899002075195,1,
R2474,subirás,75,word,2,True,1,1.1716680526733398,1,
R2474,cederás,76,word,1,False,1,1.5850000381469727,1,
R2474,narrábamos,77,word,1,False,1,1.4137978553771973,1,
R2474,morderás,78,word,2,True,1,1.7940540313720703,1,
R2474,rayaría,79,word,2,True,1,0.6577811241149902,1,
R2474,bigabas,80,word,1,True,1,1.0679311752319336,2,
R2474,rayarás,81,word,2,True,1,0.8650898933410645,1,
R2474,sufrían,82,word,2,True,1,0.7299690246582031,1,
R2474,chanraría,83,word,1,True,1,1.7655918598175049,2,
R2474,partirán,84,word,2,True,1,1.473060131072998,1,
R2474,casaríamos,85,word,2,True,1,0.8959519863128662,1,
R2474,gruñías,86,word,1,False,1,1.8302481174468994,1,
R2474,venderíamos,87,word,2,True,1,1.1605360507965088,1,
R2474,sufrirían,88,word,2,True,1,0.8867318630218506,1,
R2474,burraré,89,word,1,True,1,1.5187430381774902,2,
R2474,vultarías,90,word,2,False,1,1.8179309368133545,2,
R2474,mertabas,91,word,1,True,1,1.093050241470337,2,
R2474,lamerías,92,word,1,False,1,1.4448950290679932,1,
R2474,subían,93,word,2,True,1,0.6839942932128906,1,
R2474,focaremos,94,word,1,True,1,1.9338889122009277,2,
R2474,subiré,95,word,2,True,1,1.007934808731079,1,
R2474,morderían,96,word,2,True,1,0.9486448764801025,1,
R2474,gruñiría,97,word,1,False,1,1.4957199096679688,1,
R2474,retaban,98,word,2,True,1,0.665708065032959,1,
R2474,cenará,99,word,2,True,1,0.9729788303375244,1,
R2474,cumpliremos,100,word,1,False,1,1.5407519340515137,1,
R2474,comeríamos,101,word,2,True,1,1.3318078517913818,1,
R2474,maftarán,102,word,1,True,1,0.8670406341552734,2,
R2474,lamerían,103,word,1,False,1,1.4289941787719727,1,
R2474,gruñirían,104,word,1,False,1,2.3437771797180176,1,
R2474,quijarás,105,word,1,True,1,1.5398080348968506,2,
R2474,quemarás,106,word,2,True,1,1.041905164718628,1,
R2474,coserás,107,word,2,True,1,1.3117003440856934,1,
R2474,barreré,108,word,2,True,1,1.5628750324249268,1,
R2474,comías,109,word,2,True,1,0.9369587898254395,1,
R2474,honderé,110,word,1,True,1,1.538856029510498,2,
R2474,formarías,111,word,2,True,1,1.3734080791473389,1,
R2474,sumaban,112,word,2,True,1,0.787010908126831,1,
R2474,unirá,113,word,2,True,1,1.291860818862915,1,
R2474,bailaríamos,114,word,2,True,1,0.7009060382843018,1,
R2474,cenaremos,115,word,2,True,1,0.8670601844787598,1,
R2474,meteré,116,word,2,True,1,1.5209319591522217,1,
R2474,zusarías,117,word,1,True,1,1.016874074935913,2,
R2474,rotaban,118,word,2,True,1,0.8759033679962158,1,
R2474,rotarían,119,word,2,True,1,3.1558151245117188,1,
R2474,imiría,120,word,1,True,1,1.1789319515228271,2,
R2474,focabas,121,word,1,True,1,2.119828939437866,2,
R2474,charlaba,122,word,2,True,1,0.9679632186889648,1,
R2474,toseremos,123,word,2,True,1,3.04000186920166,1,
R2474,bailaremos,124,word,2,True,1,0.5878639221191406,1,
R2474,galarías,125,word,2,False,1,2.6618120670318604,2,
R2474,comerás,126,word,2,True,1,1.5851051807403564,1,
R2474,lucharía,127,word,1,False,1,2.5789170265197754,1,
R2474,subiríamos,128,word,2,True,1,1.3829700946807861,1,
R2474,cosías,129,word,2,True,1,1.433812141418457,1,
R2474,retarías,130,word,2,True,1,1.528893232345581,1,
R2474,correré,131,word,2,True,1,0.9557788372039795,1,
R2474,vultaremos,132,word,1,True,1,1.7360191345214844,2,
R2474,bigaríamos,133,word,1,True,1,1.223154067993164,2,
R2474,lorgarías,134,word,2,False,1,2.7057549953460693,2,
R2474,meterá,135,word,2,True,1,0.876039981842041,1,
R2474,coseríamos,136,word,2,True,1,0.975635290145874,1,
R2474,cortábamos,137,word,2,True,1,1.1267590522766113,1,
R2474,casará,138,word,2,True,1,0.6510660648345947,1,
R2474,zusarían,139,word,1,True,1,0.695749044418335,2,
R2474,cederemos,140,word,1,False,1,1.6408209800720215,1,
R2474,subíamos,141,word,2,True,1,0.8181569576263428,1,
R2474,burrarían,142,word,2,False,1,1.734178066253662,2,
R2474,anrerán,143,word,1,True,1,1.6270389556884766,2,
R2474,burrarán,144,word,1,True,1,1.4655249118804932,2,
R2474,bailarás,145,word,2,True,1,0.9780681133270264,1,
R2474,besaban,146,word,2,True,1,0.7882671356201172,1,
R2474,lorgaría,147,word,2,False,1,2.027130126953125,2,
R2474,sufrirás,148,word,2,True,1,0.7923212051391602,1,
R2474,venderá,149,word,2,True,1,1.0806527137756348,1,
R2474,bailaban,150,word,2,True,1,0.7593169212341309,1,
R2474,fanías,151,word,1,True,1,1.8491601943969727,2,
R2474,nadaremos,152,word,1,False,1,2.0658528804779053,1,
R2474,partirá,153,word,2,True,1,2.064880132675171,1,
R2474,ceterá,154,word,1,True,1,1.1890738010406494,2,
R2474,temeríamos,155,word,2,True,1,1.9638230800628662,1,
R2474,cumplirían,156,word,2,True,1,2.046048879623413,1,
R2474,barrerías,157,word,2,True,2,0.9086947441101074,1,
R2474,temíamos,158,word,2,True,2,1.5628981590270996,1,
R2474,narraban,159,word,2,True,2,1.5399155616760254,1,
R2474,luntiría,160,word,1,True,2,1.2219388484954834,2,
R2474,sufriremos,161,word,2,True,2,0.8369390964508057,1,
R2474,rimarías,162,word,1,False,2,1.951035976409912,1,
R2474,temerá,163,word,2,True,2,0.7960000038146973,1,
R2474,cortaremos,164,word,2,True,2,1.362928867340088,1,
R2474,quijaré,165,word,1,True,2,1.1677298545837402,2,
R2474,imían,166,word,1,True,2,0.9389748573303223,2,
R2474,tupliremos,167,word,1,True,2,1.1748449802398682,2,
R2474,cuarriré,168,word,1,True,2,1.5833048820495605,2,
R2474,ritíamos,169,word,2,False,2,0.6337180137634277,2,
R2474,lorgabas,170,word,2,False,2,1.525665044784546,2,
R2474,unirías,171,word,2,True,2,0.782904863357544,1,
R2474,pavarían,172,word,1,True,2,1.4277241230010986,2,
R2474,luntiré,173,word,1,True,2,1.3311817646026611,2,
R2474,chanraré,174,word,1,True,2,1.7548649311065674,2,
R2474,ciperán,175,word,1,True,2,1.6108789443969727,2,
R2474,lorgaba,176,word,2,False,2,1.0169391632080078,2,
R2474,lailaríamos,177,word,1,True,2,2.9849557876586914,2,
R2474,sindaría,178,word,1,True,2,1.7827541828155518,2,
R2474,cisarán,179,word,1,True,2,1.1829180717468262,2,
R2474,gachará,180,word,1,True,2,1.9630088806152344,2,
R2474,luntías,181,word,1,True,2,1.850926160812378,2,
R2474,luntían,182,word,1,True,2,1.4490258693695068,2,
R2474,besábamos,183,word,2,True,2,0.8337461948394775,1,
R2474,faltarán,184,word,2,True,2,0.5595788955688477,1,
R2474,coseré,185,word,2,True,2,0.582953929901123,1,
R2474,runaba,186,word,1,True,2,1.5267620086669922,2,
R2474,frinderemos,187,word,2,False,2,1.4160470962524414,2,
R2474,focaré,188,word,2,False,2,1.00701904296875,2,
R2474,unías,189,word,2,True,2,0.6704139709472656,1,
R2474,fanerá,190,word,2,False,2,1.656879186630249,2,
R2474,tuplirían,191,word,1,True,2,0.867913007736206,2,
R2474,casaremos,192,word,2,True,2,0.6560039520263672,1,
R2474,frinderé,193,word,1,True,2,1.263171911239624,2,
R2474,barríamos,194,word,2,True,2,1.2138988971710205,1,
R2474,frindíamos,195,word,1,True,2,1.2829599380493164,2,
R2474,retaré,196,word,2,True,2,0.7411208152770996,1,
R2474,meterías,197,word,2,True,2,0.9781639575958252,1,
R2474,cenaban,198,word,2,True,2,0.8658487796783447,1,
R2474,galaría,199,word,2,False,2,2.2311480045318604,2,
R2474,nadabas,200,word,2,True,2,0.8244061470031738,1,
R2474,chanraremos,201,word,1,True,2,1.6517279148101807,2,
R2474,ceterían,202,word,1,True,2,1.3519189357757568,2,
R2474,uniré,203,word,2,True,2,0.6598060131072998,1,
R2474,faltaban,204,word,2,True,2,0.7318902015686035,1,
R2474,moncerás,205,word,1,True,2,1.0891289710998535,2,
R2474,faltará,206,word,2,True,2,0.8637900352478027,1,
R2474,prendían,207,word,2,True,2,0.7859311103820801,1,
R2474,anrería,208,word,2,False,2,1.5630528926849365,2,
R2474,zusaría,209,word,1,True,2,0.6549239158630371,2,
R2474,eplarán,210,word,1,True,2,0.8008379936218262,2,
R2474,besaremos,211,word,2,True,2,0.599686861038208,1,
R2474,cuarriremos,212,word,1,True,2,1.010854721069336,2,
R2474,cubríamos,213,word,2,True,2,0.7498750686645508,1,
R2474,ceflería,214,word,1,True,2,0.8970339298248291,2,
R2474,nadaban,215,word,2,True,2,0.8478140830993652,1,
R2474,moncerá,216,word,1,True,2,0.9369440078735352,2,
R2474,runarán,217,word,1,True,2,1.687053918838501,2,
R2474,someré,218,word,2,False,2,1.0429208278656006,2,
R2474,porerán,219,word,1,True,2,1.2837550640106201,2,
R2474,gacharían,220,word,1,True,2,1.3119380474090576,2,
R2474,rondarían,221,word,2,True,2,0.9577820301055908,1,
R2474,obraría,222,word,2,True,2,1.1978731155395508,1,
R2474,prenderé,223,word,2,True,2,0.7300598621368408,1,
R2474,fundirán,224,word,2,True,2,0.6843311786651611,1,
R2474,quemarías,225,word,2,True,2,1.1559569835662842,1,
R2474,sauarías,226,word,1,True,2,1.5459208488464355,2,
R2474,rimará,227,word,1,False,2,1.9548890590667725,1,
R2474,lamerás,228,word,1,False,2,2.217090129852295,1,
R2474,cubrían,229,word,2,True,2,0.725905179977417,1,
R2474,toserás,230,word,2,True,2,1.0038790702819824,1,
R2474,bruvías,231,word,1,True,2,1.4240169525146484,2,
R2474,pactaré,232,word,2,True,2,1.2517759799957275,1,
R2474,seseremos,233,word,1,True,2,1.1718511581420898,2,
R2474,eplaremos,234,word,1,True,2,0.9250831604003906,2,
R2474,cumplirá,235,word,2,True,2,0.8717660903930664,1,
R2474,rayará,236,word,2,True,2,0.7469167709350586,1,
R2474,obrarías,237,word,2,True,2,1.1070342063903809,1,
R2474,bigarían,238,word,1,True,2,1.246032953262329,2,
R2474,eplará,239,word,1,True,2,0.6588058471679688,2,
R2474,cubrirá,240,word,2,True,2,0.9209673404693604,1,
R2474,runarías,241,word,1,True,2,1.562821865081787,2,
R2474,cetaríamos,242,word,1,True,2,1.3448247909545898,2,
R2474,meteremos,243,word,2,True,2,1.167011022567749,1,
R2474,casábamos,244,word,2,True,2,0.7848997116088867,1,
R2474,obrarás,245,word,2,True,2,0.7549068927764893,1,
R2474,seserán,246,word,1,True,2,1.1107761859893799,2,
R2474,sindaríamos,247,word,2,False,2,1.083873987197876,2,
R2474,imirías,248,word,2,False,2,1.5229599475860596,2,
R2474,lamerá,249,word,2,True,2,1.8970320224761963,1,
R2474,prenderíamos,250,word,2,True,2,0.7111806869506836,1,
R2474,zusará,251,word,1,True,2,0.5849630832672119,2,
R2474,comería,252,word,2,True,2,0.693875789642334,1,
R2474,pavarás,253,word,1,True,2,0.8588559627532959,2,
R2474,sindarás,254,word,1,True,2,1.6897966861724854,2,
R2474,cetíamos,255,word,2,False,2,0.7831029891967773,2,
R2474,formarán,256,word,2,True,2,0.676908016204834,1,
R2474,bailaré,257,word,2,True,2,0.6458230018615723,1,
R2474,ritería,258,word,2,False,2,0.7770459651947021,2,
R2474,cipía,259,word,1,True,2,0.8045680522918701,2,
R2474,cenarán,260,word,2,True,2,0.89394211769104,1,
R2474,maftaría,261,word,1,True,2,1.0191409587860107,2,
R2474,cenábamos,262,word,2,True,2,0.749835729598999,1,
R2474,temeré,263,word,2,True,2,0.7328529357910156,1,
R2474,eplarían,264,word,1,True,2,0.9941229820251465,2,
R2474,faneríamos,265,word,1,True,2,1.1069602966308594,2,
R2474,somían,266,word,1,True,2,1.7171261310577393,2,
R2474,bigaré,267,word,1,True,2,0.9570631980895996,2,
R2474,obraremos,268,word,2,True,2,0.9089140892028809,1,
R2474,coserías,269,word,2,True,2,0.7627091407775879,1,
R2474,ceflerá,270,word,2,False,2,1.5880241394042969,2,
R2474,rayarán,271,word,2,True,2,0.6503379344940186,1,
R2474,bigará,272,word,1,True,2,0.7568268775939941,2,
R2474,cetarían,273,word,1,True,2,2.1399028301239014,2,
R2474,lailaré,274,word,1,True,2,0.8841369152069092,2,
R2474,chanraba,275,word,1,True,2,1.8979060649871826,2,
R2474,formarían,276,word,1,False,2,1.2047340869903564,1,
R2474,anría,277,word,1,True,2,1.2632036209106445,2,
R2474,bimaban,278,word,1,True,2,0.8329463005065918,2,
R2474,cortaría,279,word,2,True,2,0.8131089210510254,1,
R2474,venderán,280,word,2,True,2,0.7227420806884766,1,
R2474,cederé,281,word,2,True,2,1.102780818939209,1,
R2474,mertarás,282,word,1,True,2,2.1060891151428223,2,
R2474,faltábamos,283,word,2,True,2,0.8519148826599121,1,
R2474,unirán,284,word,2,True,2,0.6540400981903076,1,
R2474,luntíamos,285,word,1,True,2,1.0540900230407715,2,
R2474,pactarías,286,word,1,False,2,1.4259312152862549,1,
R2474,obraré,287,word,2,True,2,0.9128739833831787,1,
R2474,correrás,288,word,2,True,2,1.090867042541504,1,
R2474,toserán,289,word,2,True,2,1.2309181690216064,1,
R2474,arderá,290,word,2,True,2,1.716966152191162,1,
R2474,besabas,291,word,2,True,2,0.6628942489624023,1,
R2474,lamías,292,word,1,False,2,1.1158838272094727,1,
R2474,rayaba,293,word,1,False,2,1.1171860694885254,1,
R2474,cosería,294,word,2,True,2,0.6673688888549805,1,
R2474,unían,295,word,2,True,2,0.5748391151428223,1,
R2474,ciperé,296,word,1,True,2,0.7431769371032715,2,
R2474,comían,297,word,2,True,2,0.6378462314605713,1,
R2474,sumaremos,298,word,2,True,2,0.8479490280151367,1,
R2474,cenaré,299,word,2,True,2,0.647040843963623,1,
R2474,rotará,300,word,2,True,2,0.6960029602050781,1,
R2474,cetaremos,301,word,1,True,2,0.949944019317627,2,
R2474,quijará,302,word,1,True,2,0.8260879516601562,2,
R2474,runaremos,303,word,1,True,2,0.8379261493682861,2,
R2474,lucharán,304,word,1,False,2,1.1626040935516357,1,
R2474,lamían,305,word,1,False,2,0.9991140365600586,1,
R2474,besaríamos,306,word,2,True,2,0.6768062114715576,1,
R2474,lailabas,307,word,1,True,2,0.7917568683624268,2,
R2474,tuplirán,308,word,1,True,2,0.7639930248260498,2,
R2474,arderíamos,309,word,2,True,2,1.108902931213379,1,
R2474,frindería,310,word,1,True,2,0.8659420013427734,2,
R2474,sindará,311,word,2,False,2,1.1601369380950928,2,
R2474,nadaré,312,word,2,True,2,0.6429810523986816,1,
R2474,focarán,313,word,2,False,3,1.6658661365509033,2,
R2474,rondará,314,word,2,True,3,0.6849279403686523,1,
R2474,cumplirás,315,word,2,True,3,1.0080549716949463,1,
R2474,luntiríamos,316,word,1,True,3,1.2837638854980469,2,
R2474,tujiría,317,word,1,True,3,0.6684460639953613,2,
R2474,prenderían,318,word,2,True,3,0.8981192111968994,1,
R2474,seserás,319,word,1,True,3,1.4338510036468506,2,
R2474,tuplía,320,word,1,True,3,0.9427049160003662,2,
R2474,mardiremos,321,word,1,True,3,2.5059609413146973,2,
R2474,galaba,322,word,2,False,3,1.1629607677459717,2,
R2474,luchaba,323,word,2,True,3,0.7598509788513184,1,
R2474,obrarán,324,word,2,True,3,1.3429977893829346,1,
R2474,mertará,325,word,1,True,3,1.3288078308105469,2,
R2474,tujirán,326,word,1,True,3,0.656959056854248,2,
R2474,bigarías,327,word,1,True,3,1.2342150211334229,2,
R2474,quemábamos,328,word,2,True,3,0.959709882736206,1,
R2474,sauarán,329,word,1,True,3,0.7758800983428955,2,
R2474,juraría,330,word,2,True,3,1.0690429210662842,1,
R2474,cetería,331,word,1,True,3,0.9959621429443359,2,
R2474,sindaré,332,word,2,False,3,1.135869026184082,2,
R2474,lacherán,333,word,1,True,3,1.2219557762145996,2,
R2474,narraré,334,word,2,True,3,1.0980510711669922,1,
R2474,gruñía,335,word,1,False,3,3.4817709922790527,1,
R2474,ceteré,336,word,1,True,3,1.0668389797210693,2,
R2474,bruvirías,337,word,1,True,3,2.430974006652832,2,
R2474,burraría,338,word,2,False,3,1.853896141052246,2,
R2474,fundiremos,339,word,2,True,3,1.2250182628631592,1,
R2474,nadábamos,340,word,2,True,3,0.7199082374572754,1,
R2474,pavaríamos,341,word,1,True,3,1.3379909992218018,2,
R2474,burrábamos,342,word,1,True,3,3.235907793045044,2,
R2474,retabas,343,word,2,True,3,0.7549712657928467,1,
R2474,temeremos,344,word,2,True,3,0.7627291679382324,1,
R2474,cortarás,345,word,2,True,3,0.953045129776001,1,
R2474,temías,346,word,2,True,3,0.7797932624816895,1,
R2474,bimaba,347,word,1,True,3,1.1798450946807861,2,
R2474,ceflerás,348,word,1,True,3,1.389164924621582,2,
R2474,eplarás,349,word,1,True,3,0.8249847888946533,2,
R2474,comíamos,350,word,2,True,3,0.8417720794677734,1,
R2474,quijaba,351,word,1,True,3,0.7048890590667725,2,
R2474,sindaba,352,word,1,True,3,1.658884048461914,2,
R2474,lorgábamos,353,word,2,False,3,0.9549739360809326,2,
R2474,arderían,354,word,2,True,3,1.0300040245056152,1,
R2474,tosías,355,word,2,True,3,0.7247779369354248,1,
R2474,quijaría,356,word,1,True,3,1.6990699768066406,2,
R2474,unía,357,word,2,True,3,0.7704117298126221,1,
R2474,sufrirías,358,word,2,True,3,0.7220268249511719,1,
R2474,cichiré,359,word,1,True,3,0.9039242267608643,2,
R2474,frindían,360,word,1,True,3,2.304802179336548,2,
R2474,lacherían,361,word,1,True,3,1.359889030456543,2,
R2474,quemaré,362,word,2,True,3,0.7827529907226562,1,
R2474,bigarás,363,word,1,True,3,2.327915906906128,2,
R2474,monceremos,364,word,1,True,3,1.9157829284667969,2,
R2474,porería,365,word,1,True,3,4.154132127761841,2,
R2474,anrerá,366,word,1,True,3,0.8758399486541748,2,
R2474,venderás,367,word,2,True,3,1.0067460536956787,1,
R2474,porían,368,word,1,True,3,3.1281797885894775,2,
R2474,bailabas,369,word,2,True,3,0.7739360332489014,1,
R2474,tosían,370,word,2,True,3,0.8376901149749756,1,
R2474,ceflerías,371,word,1,True,3,2.02994704246521,2,
R2474,rotaré,372,word,2,True,3,1.3218700885772705,1,
R2474,subirías,373,word,2,True,3,1.3063089847564697,1,
R2474,ritían,374,word,1,True,3,2.0481069087982178,2,
R2474,maftaban,375,word,1,True,3,1.3238780498504639,2,
R2474,cortarías,376,word,2,True,3,1.2240278720855713,1,
R2474,gacharías,377,word,1,True,3,1.9849581718444824,2,
R2474,lailarás,378,word,1,True,3,2.2830772399902344,2,
R2474,juraba,379,word,2,True,3,0.7058670520782471,1,
R2474,uniríamos,380,word,2,True,3,0.6907370090484619,1,
R2474,pavaría,381,word,1,True,3,1.696061134338379,2,
R2474,sesíamos,382,word,1,True,3,1.0068840980529785,2,
R2474,bruviré,383,word,1,True,3,0.9998550415039062,2,
R2474,tujirían,384,word,1,True,3,0.6780250072479248,2,
R2474,barreremos,385,word,2,True,3,1.4349899291992188,1,
R2474,luntirán,386,word,1,True,3,3.648991823196411,2,
R2474,quijabas,387,word,1,True,3,2.776986837387085,2,
R2474,narrabas,388,word,2,True,3,0.6419551372528076,1,
R2474,tuplían,389,word,1,True,3,0.8949148654937744,2,
R2474,corría,390,word,2,True,3,0.7927699089050293,1,
R2474,imirás,391,word,1,True,3,1.593155860900879,2,
R2474,formarás,392,word,2,True,3,0.8809568881988525,1,
R2474,lachería,393,word,1,True,3,0.8398611545562744,2,
R2474,cuarrían,394,word,1,True,3,2.5400660037994385,2,
R2474,rotaría,395,word,2,True,3,0.6438441276550293,1,
R2474,sufriríamos,396,word,2,True,3,0.6796591281890869,1,
R2474,galaríamos,397,word,1,True,3,1.8760724067687988,2,
R2474,partía,398,word,2,True,3,0.8259327411651611,1,
R2474,fundiríamos,399,word,2,True,3,1.9635450839996338,1,
R2474,fanerán,400,word,1,True,3,1.1770470142364502,2,
R2474,sufriré,401,word,2,True,3,0.789849042892456,1,
R2474,barrerán,402,word,2,True,3,1.5049819946289062,1,
R2474,moncía,403,word,1,True,3,0.931938886642456,2,
R2474,pactaremos,404,word,2,True,3,2.4188289642333984,1,
R2474,charlábamos,405,word,2,True,3,0.6151621341705322,1,
R2474,zusarán,406,word,1,True,3,1.0058341026306152,2,
R2474,runará,407,word,1,True,3,1.299926996231079,2,
R2474,barría,408,word,2,True,3,0.6880707740783691,1,
R2474,cenaba,409,word,2,True,3,0.7249579429626465,1,
R2474,juraré,410,word,2,True,3,0.750978946685791,1,
R2474,ciperías,411,word,1,True,3,0.9190261363983154,2,
R2474,cenarían,412,word,2,True,3,1.218829870223999,1,
R2474,besaría,413,word,2,True,3,0.8749220371246338,1,
R2474,narrarán,414,word,2,True,3,0.6488440036773682,1,
R2474,tujiríamos,415,word,1,True,3,0.9068081378936768,2,
R2474,quemarán,416,word,2,True,3,0.8008229732513428,1,
R2474,somerán,417,word,2,False,3,2.539055824279785,2,
R2474,imía,418,word,1,True,3,1.3429090976715088,2,
R2474,luntía,419,word,1,True,3,0.7217731475830078,2,
R2474,mertaremos,420,word,1,True,3,0.9109833240509033,2,
R2474,formaban,421,word,2,True,3,0.618786096572876,1,
R2474,juraremos,422,word,2,True,3,0.555877685546875,1,
R2474,charlaré,423,word,2,True,3,0.5919952392578125,1,
R2474,cisaremos,424,word,1,True,3,0.7799317836761475,2,
R2474,maftaríamos,425,word,1,True,3,0.9329280853271484,2,
R2474,cedía,426,word,2,True,3,1.2410709857940674,1,
R2474,imirían,427,word,1,True,3,0.9430010318756104,2,
R2474,bigarán,428,word,1,True,3,1.3838889598846436,2,
R2474,correrá,429,word,2,True,3,0.5599589347839355,1,
R2474,rotarás,430,word,2,True,3,0.6999459266662598,1,
R2474,burrará,431,word,1,True,3,1.1518747806549072,2,
R2474,eplarías,432,word,1,True,3,0.6670372486114502,2,
R2474,cosíamos,433,word,2,True,3,1.750284194946289,1,
R2474,tujirías,434,word,1,True,3,0.7568807601928711,2,
R2474,lacherás,435,word,1,True,3,0.6585769653320312,2,
R2474,casaría,436,word,2,True,3,0.6728212833404541,1,
R2474,sufríamos,437,word,2,True,3,1.0115549564361572,1,
R2474,cortaban,438,word,2,True,3,0.5653989315032959,1,
R2474,cisaban,439,word,1,True,3,0.6959049701690674,2,
R2474,rondarás,440,word,2,True,3,1.5437440872192383,1,
R2474,sauabas,441,word,1,True,3,0.7179079055786133,2,
R2474,gacharemos,442,word,1,True,3,0.7113509178161621,2,
R2474,cortaríamos,443,word,2,True,3,0.8782141208648682,1,
R2474,galaré,444,word,2,False,3,1.0417311191558838,2,
R2474,casarás,445,word,2,True,3,0.649993896484375,1,
R2474,luntirá,446,word,1,True,3,0.85300612449646,2,
R2474,morderíamos,447,word,1,False,3,0.7130911350250244,1,
R2474,gruñirías,448,word,2,True,3,1.3908588886260986,1,
R2474,pavarán,449,word,1,True,3,2.0850391387939453,2,
R2474,cubrirías,450,word,2,True,3,0.7921993732452393,1,
R2474,cuarríamos,451,word,1,True,3,1.8466291427612305,2,
R2474,rondarías,452,word,2,True,3,0.7639338970184326,1,
R2474,lachíamos,453,word,1,True,3,0.6888251304626465,2,
R2474,anrerás,454,word,1,True,3,2.066053867340088,2,
R2474,cisabas,455,word,1,True,3,1.809969186782837,2,
R2474,cichirías,456,word,1,True,3,0.8351070880889893,2,
R2474,cedería,457,word,1,False,3,0.7758920192718506,1,
R2474,pavaremos,458,word,1,True,3,0.8119401931762695,2,
R2474,cipería,459,word,1,True,3,0.6418111324310303,2,
R2474,besará,460,word,2,True,3,0.6864948272705078,1,
R2474,rimarían,461,word,1,False,3,2.067981004714966,1,
R2474,faltarían,462,word,2,True,3,0.6627130508422852,1,
R2474,tupliré,463,word,1,True,3,0.8258092403411865,2,
R2474,bimaríamos,464,word,1,True,3,1.3290290832519531,2,
R2474,chanrábamos,465,word,1,True,3,2.2204508781433105,2,
R2474,fundirá,466,word,2,True,3,0.6101229190826416,1,
R2474,pavabas,467,word,1,True,3,2.5859482288360596,2,
R2474,cetarás,468,word,1,True,3,1.0893733501434326,2,
R2474,focaban,469,word,2,False,4,5.979176998138428,2,
R2474,subías,470,word,2,True,4,1.5279982089996338,1,
R2474,coserían,471,word,2,True,4,1.1448140144348145,1,
R2474,cichiremos,472,word,1,True,4,0.9541890621185303,2,
R2474,besarán,473,word,2,True,4,1.2170519828796387,1,
R2474,galábamos,474,word,1,True,4,3.1611557006835938,2,
R2474,cenaríamos,475,word,2,True,4,1.2149970531463623,1,
R2474,seserá,476,word,1,True,4,2.022083044052124,2,
R2474,poreremos,477,word,1,True,4,1.6511561870574951,2,
R2474,lameremos,478,word,1,False,4,0.9411149024963379,1,
R2474,rotarán,479,word,2,True,4,0.9211211204528809,1,
R2474,casaban,480,word,2,True,4,0.6950240135192871,1,
R2474,ceflías,481,word,1,True,4,2.7885468006134033,2,
R2474,fundías,482,word,2,True,4,0.807185173034668,1,
R2474,lailarías,483,word,1,True,4,0.8810229301452637,2,
R2474,bailaría,484,word,2,True,4,0.5722019672393799,1,
R2474,ardíamos,485,word,2,True,4,1.459040880203247,1,
R2474,sauaba,486,word,1,True,4,1.1661689281463623,2,
R2474,ceflerán,487,word,1,True,4,2.061073064804077,2,
R2474,uníamos,488,word,2,True,4,0.7251899242401123,1,
R2474,juraríamos,489,word,2,True,4,0.7631497383117676,1,
R2474,gruñían,490,word,2,True,4,0.8632359504699707,1,
R2474,ciperá,491,word,1,True,4,0.9200940132141113,2,
R2474,sauarás,492,word,1,True,4,0.7070379257202148,2,
R2474,zusaban,493,word,1,True,4,0.6249380111694336,2,
R2474,cumplirán,494,word,2,True,4,0.7628762722015381,1,
R2474,correrán,495,word,2,True,4,0.6398849487304688,1,
R2474,mertaría,496,word,1,True,4,1.2508957386016846,2,
R2474,faltaré,497,word,2,True,4,1.0218513011932373,1,
R2474,faltaremos,498,word,2,True,4,0.7027828693389893,1,
R2474,bigaremos,499,word,1,True,4,1.0909299850463867,2,
R2474,gachábamos,500,word,1,True,4,0.7158091068267822,2,
R2474,moncería,501,word,1,True,4,0.7020759582519531,2,
R2474,partirías,502,word,2,True,4,3.7460269927978516,1,
R2474,sumarías,503,word,2,True,4,0.7308938503265381,1,
R2474,somerías,504,word,2,False,4,1.5723469257354736,2,
R2474,cubría,505,word,2,True,4,1.0019900798797607,1,
R2474,mardiría,506,word,1,True,4,3.60326886177063,2,
R2474,mardirán,507,word,1,True,4,0.8929128646850586,2,
R2474,cisarías,508,word,1,True,4,1.2818639278411865,2,
R2474,casaré,509,word,1,False,4,1.3211619853973389,1,
R2474,gruñirá,510,word,2,True,4,0.7315220832824707,1,
R2474,cenaría,511,word,2,True,4,0.9606010913848877,1,
R2474,vendería,512,word,2,True,4,0.5881359577178955,1,
R2474,lorgaban,513,word,2,False,4,0.906893253326416,2,
R2474,honderás,514,word,1,True,4,1.6897830963134766,2,
R2474,gacharíamos,515,word,1,True,4,0.7189218997955322,2,
R2474,charlaremos,516,word,2,True,4,0.6419358253479004,1,
R2474,cichían,517,word,1,True,4,0.6749238967895508,2,
R2474,moncías,518,word,1,True,4,0.8749420642852783,2,
R2474,formabas,519,word,2,True,4,0.7087538242340088,1,
R2474,comerías,520,word,2,True,4,0.6188077926635742,1,
R2474,maftarás,521,word,1,True,4,0.6029119491577148,2,
R2474,quijarías,522,word,1,True,4,0.8338501453399658,2,
R2474,narrará,523,word,2,True,4,0.6099569797515869,1,
R2474,cichía,524,word,1,True,4,1.1349081993103027,2,
R2474,zusarás,525,word,1,True,4,0.64894700050354,2,
R2474,charlará,526,word,2,True,4,1.5438742637634277,1,
R2474,cuarrirán,527,word,1,True,4,2.1749210357666016,2,
R2474,barrería,528,word,2,True,4,1.077650785446167,1,
R2474,rimaremos,529,word,1,False,4,2.0945730209350586,1,
R2474,tuplirá,530,word,1,True,4,0.7010200023651123,2,
R2474,riteré,531,word,1,True,4,4.283249855041504,2,
R2474,correría,532,word,2,True,4,0.6339378356933594,1,
R2474,bimará,533,word,1,True,4,0.7383530139923096,2,
R2474,poreré,534,word,1,True,4,1.7080249786376953,2,
R2474,hondía,535,word,1,True,4,0.6778991222381592,2,
R2474,tujían,536,word,1,True,4,0.5910558700561523,2,
R2474,gruñirán,537,word,2,True,4,0.7389709949493408,1,
R2474,sumaba,538,word,2,True,4,0.8863029479980469,1,
R2474,tosíamos,539,word,2,True,4,0.7697432041168213,1,
R2474,ceflerían,540,word,1,True,4,0.9852790832519531,2,
R2474,jurarían,541,word,2,True,4,0.648921012878418,1,
R2474,sindarán,542,word,1,True,4,0.7598190307617188,2,
R2474,moncíamos,543,word,1,True,4,0.7179660797119141,2,
R2474,cedías,544,word,2,True,4,1.2816932201385498,1,
R2474,rimaría,545,word,2,True,4,1.3859119415283203,1,
R2474,faneremos,546,word,1,True,4,1.4131841659545898,2,
R2474,nadará,547,word,2,True,4,0.5807168483734131,1,
R2474,obrábamos,548,word,2,True,4,1.7206439971923828,1,
R2474,tupliríamos,549,word,1,True,4,0.8528809547424316,2,
R2474,partían,550,word,2,True,4,0.6068451404571533,1,
R2474,tuplíamos,551,word,1,True,4,0.6518330574035645,2,
R2474,gruñirás,552,word,2,True,4,0.7109377384185791,1,
R2474,runarás,553,word,1,True,4,2.594963788986206,2,
R2474,vendías,554,word,2,True,4,0.7040832042694092,1,
R2474,mertarían,555,word,1,True,4,0.8797287940979004,2,
R2474,vultaba,556,word,2,False,4,1.6829109191894531,2,
R2474,bailábamos,557,word,2,True,4,0.6520059108734131,1,
R2474,burraba,558,word,1,True,4,1.1757230758666992,2,
R2474,nadarían,559,word,2,True,4,0.7461769580841064,1,
R2474,vultabas,560,word,2,False,4,0.9670488834381104,2,
R2474,charlarás,561,word,2,True,4,0.6867020130157471,1,
R2474,chanrarás,562,word,1,True,4,1.070314884185791,2,
R2474,quemabas,563,word,2,True,4,0.6559779644012451,1,
R2474,quemaban,564,word,2,True,4,0.5049347877502441,1,
R2474,faltaríamos,565,word,2,True,4,0.5917360782623291,1,
R2474,rayábamos,566,word,2,True,4,0.5631301403045654,1,
R2474,fundirías,567,word,2,True,4,0.5249600410461426,1,
R2474,barrerá,568,word,2,True,4,0.6439647674560547,1,
R2474,chanraríamos,569,word,1,True,4,0.8440630435943604,2,
R2474,galarás,570,word,2,False,4,0.6799297332763672,2,
R2474,jurarías,571,word,2,True,4,0.6368429660797119,1,
R2474,tuplirías,572,word,1,True,4,0.7320172786712646,2,
R2474,honderán,573,word,1,True,4,0.6168451309204102,2,
R2474,mardirías,574,word,1,True,4,0.6277041435241699,2,
R2474,cenabas,575,word,2,True,4,0.6749351024627686,1,
R2474,venderemos,576,word,2,True,4,0.625701904296875,1,
R2474,cisaba,577,word,1,True,4,0.7651107311248779,2,
R2474,rimarán,578,word,1,False,4,2.2160303592681885,1,
R2474,cubrirás,579,word,2,True,4,0.819904088973999,1,
R2474,vultarían,580,word,1,True,4,1.135761022567749,2,
R2474,burraban,581,word,1,True,4,1.510026216506958,2,
R2474,charlarán,582,word,2,True,4,1.5206892490386963,1,
R2474,barreríamos,583,word,2,True,4,1.0971100330352783,1,
R2474,cedían,584,word,2,True,4,1.055083990097046,1,
R2474,pavaban,585,word,1,True,4,0.6679778099060059,2,
R2474,bruvía,586,word,1,True,4,1.2086658477783203,2,
R2474,sesería,587,word,1,True,4,0.6870851516723633,2,
R2474,ceflían,588,word,1,True,4,0.683833122253418,2,
R2474,prendías,589,word,2,True,4,0.9007339477539062,1,
R2474,cenarás,590,word,2,True,4,1.174098014831543,1,
R2474,chanrarías,591,word,1,True,4,0.7917370796203613,2,
R2474,pactarán,592,word,1,False,4,0.7177760601043701,1,
R2474,bruvirás,593,word,1,True,4,0.787883996963501,2,
R2474,pactarás,594,word,1,False,4,2.0158493518829346,1,
R2474,uniría,595,word,2,True,4,0.6534569263458252,1,
R2474,cortabas,596,word,2,True,4,0.5849452018737793,1,
R2474,rayaremos,597,word,2,True,4,0.6357958316802979,1,
R2474,cederían,598,word,2,True,4,0.7763850688934326,1,
R2474,morderán,599,word,2,True,4,0.9189300537109375,1,
R2474,obrarían,600,word,2,True,4,0.591433048248291,1,
R2474,cosía,601,word,2,True,4,0.6448299884796143,1,
R2474,corríamos,602,word,2,True,4,0.5559968948364258,1,
R2474,arderás,603,word,2,True,4,0.6739897727966309,1,
R2474,rotaríamos,604,word,2,True,4,0.9376859664916992,1,
R2474,correríamos,605,word,2,True,4,0.6101350784301758,1,
R2474,lacherá,606,word,1,True,4,0.7049179077148438,2,
R2474,quijarían,607,word,1,True,4,0.6668901443481445,2,
R2474,prenderías,608,word,2,True,4,0.8390970230102539,1,
R2474,cumplías,609,word,2,True,4,0.6377549171447754,1,
R2474,cichíamos,610,word,1,True,4,0.7858481407165527,2,
R2474,eplaban,611,word,1,True,4,0.6339900493621826,2,
R2474,ardían,612,word,2,True,4,0.7928709983825684,1,
R2474,cisaría,613,word,1,True,4,0.9088523387908936,2,
R2474,nadaríamos,614,word,2,True,4,0.6820809841156006,1,
R2474,frinderías,615,word,1,True,4,0.893867015838623,2,
R2474,faltarías,616,word,2,True,4,0.7019038200378418,1,
R2474,cefleríamos,617,word,1,True,4,1.0879108905792236,2,
R2474,galabas,618,word,1,True,4,2.9267709255218506,2,
R2474,cefleré,619,word,1,True,4,0.9251871109008789,2,
R2474,lorgarás,620,word,1,True,4,3.632852077484131,2,
R2474,obrará,621,word,2,True,4,2.347273349761963,1,
R2474,quemarían,622,word,2,True,4,0.7221629619598389,1,
R2474,cisaré,623,word,1,True,4,0.6879570484161377,2,
R2474,seseré,624,word,1,True,4,0.6819169521331787,2,
R2474,cetían,625,word,1,True,5,1.3447527885437012,2,
R2474,sauarían,626,word,1,True,5,1.899134874343872,2,
R2474,bruvíamos,627,word,1,True,5,1.1819779872894287,2,
R2474,partiremos,628,word,2,True,5,6.195682048797607,1,
R2474,honderíamos,629,word,1,True,5,1.1028659343719482,2,
R2474,eplaríamos,630,word,1,True,5,0.7325587272644043,2,
R2474,cetarán,631,word,1,True,5,1.3679540157318115,2,
R2474,ardía,632,word,2,True,5,0.7577190399169922,1,
R2474,lachía,633,word,1,True,5,0.800832986831665,2,
R2474,pactabas,634,word,2,True,5,1.0504100322723389,1,
R2474,luchaban,635,word,2,True,5,0.725085973739624,1,
R2474,gachaban,636,word,1,True,5,0.9956691265106201,2,
R2474,cuarriría,637,word,1,True,5,3.2990400791168213,2,
R2474,riterá,638,word,1,True,5,1.6668307781219482,2,
R2474,vultaban,639,word,2,False,5,1.2217798233032227,2,
R2474,moncerías,640,word,1,True,5,0.6888701915740967,2,
R2474,luntirías,641,word,1,True,5,0.683988094329834,2,
R2474,lamíamos,642,word,1,False,5,1.8091399669647217,1,
R2474,rondaría,643,word,2,True,5,0.9437382221221924,1,
R2474,sesías,644,word,1,True,5,1.000709056854248,2,
R2474,rondaré,645,word,2,True,5,1.3305199146270752,1,
R2474,temerás,646,word,2,True,5,0.6556811332702637,1,
R2474,cortarían,647,word,2,True,5,1.2179691791534424,1,
R2474,rimabas,648,word,1,False,5,0.9662473201751709,1,
R2474,comeremos,649,word,2,True,5,0.6198420524597168,1,
R2474,tosería,650,word,2,True,5,0.6957638263702393,1,
R2474,pactarían,651,word,2,True,5,1.1889710426330566,1,
R2474,quijarán,652,word,1,True,5,0.7218711376190186,2,
R2474,poría,653,word,1,True,5,3.0214948654174805,2,
R2474,anreré,654,word,1,True,5,1.7077560424804688,2,
R2474,lameré,655,word,1,False,5,1.9181110858917236,1,
R2474,anrerían,656,word,1,True,5,1.6159110069274902,2,
R2474,sindábamos,657,word,1,True,5,1.0028166770935059,2,
R2474,corrías,658,word,2,True,5,0.6600978374481201,1,
R2474,anríamos,659,word,1,True,5,1.1624200344085693,2,
R2474,tuplías,660,word,1,True,5,0.6480116844177246,2,
R2474,lailábamos,661,word,1,True,5,0.9259929656982422,2,
R2474,tujirá,662,word,1,True,5,0.7317690849304199,2,
R2474,lucharé,663,word,2,True,5,0.7599968910217285,1,
R2474,metía,664,word,2,True,5,0.6270058155059814,1,
R2474,partíamos,665,word,2,True,5,0.6368651390075684,1,
R2474,rotaremos,666,word,2,True,5,0.557002067565918,1,
R2474,metías,667,word,2,True,5,0.7069568634033203,1,
R2474,retaremos,668,word,2,True,5,1.0418059825897217,1,
R2474,formaré,669,word,2,True,5,0.5495169162750244,1,
R2474,cetaré,670,word,1,True,5,0.7520959377288818,2,
R2474,cichirían,671,word,1,True,5,0.7977838516235352,2,
R2474,vultarás,672,word,1,True,5,4.729156970977783,2,
R2474,cuarrirían,673,word,1,True,5,2.352874994277954,2,
R2474,unirás,674,word,2,True,5,0.7528979778289795,1,
R2474,sufrirá,675,word,2,True,5,0.914086103439331,1,
R2474,chanrará,676,word,1,True,5,2.281846761703491,2,
R2474,cubrías,677,word,2,True,5,0.7970149517059326,1,
R2474,bruviríamos,678,word,1,True,5,0.7746438980102539,2,
R2474,focará,679,word,2,False,5,0.5848827362060547,2,
R2474,rondabas,680,word,2,True,5,0.5620517730712891,1,
R2474,prenderás,681,word,2,True,5,0.5729119777679443,1,
R2474,vultaría,682,word,1,True,5,1.0138349533081055,2,
R2474,meteríamos,683,word,2,True,5,0.7848920822143555,1,
R2474,arderemos,684,word,2,True,5,0.6669960021972656,1,
R2474,pactaría,685,word,2,True,5,0.6776740550994873,1,
R2474,tujiré,686,word,1,True,5,0.618983268737793,2,
R2474,luntirás,687,word,1,True,5,0.8119759559631348,2,
R2474,cisará,688,word,1,True,5,1.1019070148468018,2,
R2474,jurarás,689,word,2,True,5,0.6879651546478271,1,
R2474,barrerían,690,word,2,True,5,0.8170950412750244,1,
R2474,vultaré,691,word,1,True,5,0.8279170989990234,2,
R2474,quemaremos,692,word,2,True,5,0.7337279319763184,1,
R2474,pactaban,693,word,2,True,5,1.060049057006836,1,
R2474,subirá,694,word,2,True,5,0.7469031810760498,1,
R2474,lorgarán,695,word,2,False,5,0.7790088653564453,2,
R2474,zusabas,696,word,1,True,5,0.5938897132873535,2,
R2474,rondaba,697,word,2,True,5,0.9180080890655518,1,
R2474,frinderíamos,698,word,1,True,5,1.100956916809082,2,
R2474,cumpliríamos,699,word,2,True,5,0.6920220851898193,1,
R2474,temerán,700,word,2,True,5,0.7289400100708008,1,
R2474,partiría,701,word,2,True,5,0.9040570259094238,1,
R2474,charlarían,702,word,2,True,5,0.6588380336761475,1,
R2474,rondaríamos,703,word,2,True,5,1.1609201431274414,1,
R2474,cetaba,704,word,1,True,5,0.6749148368835449,2,
R2474,arderías,705,word,2,True,5,0.6539299488067627,1,
R2474,runabas,706,word,1,True,5,1.90885591506958,2,
R2474,cetabas,707,word,1,True,5,1.116217851638794,2,
R2474,metería,708,word,2,True,5,2.1967990398406982,1,
R2474,runarían,709,word,2,False,5,0.6590850353240967,2,
R2474,cuarrirías,710,word,1,True,5,1.6398131847381592,2,
R2474,sumábamos,711,word,2,True,5,1.1468641757965088,1,
R2474,bruvirá,712,word,1,True,5,0.7470471858978271,2,
R2474,vultaríamos,713,word,1,True,5,1.0508499145507812,2,
R2474,imirá,714,word,1,True,5,0.8809010982513428,2,
R2474,tujía,715,word,1,True,5,0.6110959053039551,2,
R2474,mordías,716,word,2,True,5,0.8336930274963379,1,
R2474,ardería,717,word,2,True,5,3.1700069904327393,1,
R2474,cumplían,718,word,2,True,5,0.5800340175628662,1,
R2474,porerá,719,word,1,True,5,1.654693841934204,2,
R2474,lameríamos,720,word,1,False,5,0.6450328826904297,1,
R2474,cosían,721,word,2,True,5,0.89792799949646,1,
R2474,rayaríamos,722,word,2,True,5,0.6228649616241455,1,
R2474,quemaríamos,723,word,2,True,5,0.7580451965332031,1,
R2474,galaremos,724,word,1,True,5,1.630953073501587,2,
R2474,formará,725,word,2,True,5,0.6263318061828613,1,
R2474,bimarías,726,word,1,True,5,1.128000020980835,2,
R2474,cetaría,727,word,1,True,5,1.4376211166381836,2,
R2474,somería,728,word,1,True,5,1.0448229312896729,2,
R2474,porerás,729,word,1,True,5,1.9050779342651367,2,
R2474,morderá,730,word,2,True,5,0.6067841053009033,1,
R2474,eplabas,731,word,1,True,5,0.6907131671905518,2,
R2474,fanerás,732,word,1,True,5,0.9998798370361328,2,
R2474,cuarrías,733,word,1,True,5,1.9688911437988281,2,
R2474,fundían,734,word,2,True,5,0.8499829769134521,1,
R2474,rimaba,735,word,1,False,5,1.440911054611206,1,
R2474,temerías,736,word,2,True,5,0.7079102993011475,1,
R2474,cichías,737,word,1,True,5,1.4487922191619873,2,
R2474,honderían,738,word,1,True,5,0.599125862121582,2,
R2474,retaríamos,739,word,2,True,5,2.031895160675049,1,
R2474,lachían,740,word,1,True,5,0.6043210029602051,2,
R2474,rotarías,741,word,2,True,5,0.7639949321746826,1,
R2474,meterás,742,word,2,True,5,0.6017491817474365,1,
R2474,porerían,743,word,1,True,5,3.3451168537139893,2,
R2474,bigaba,744,word,1,True,5,1.028024673461914,2,
R2474,correrían,745,word,2,True,5,0.7337231636047363,1,
R2474,riterán,746,word,1,True,5,1.2718262672424316,2,
R2474,mardirás,747,word,1,True,5,0.9920699596405029,2,
R2474,morderé,748,word,2,True,5,0.6610150337219238,1,
R2474,cederías,749,word,1,False,5,0.705894947052002,1,
R2474,cubrirían,750,word,2,True,5,0.9539299011230469,1,
R2474,lailarán,751,word,1,True,5,1.9549050331115723,2,
R2474,subirán,752,word,2,True,5,0.6329019069671631,1,
R2474,besaré,753,word,2,True,5,0.6640379428863525,1,
R2474,cefleremos,754,word,1,True,5,0.9960591793060303,2,
R2474,bigaría,755,word,1,True,5,0.6560211181640625,2,
R2474,galaban,756,word,1,True,5,0.6756558418273926,2,
R2474,toseríamos,757,word,2,True,5,0.9499542713165283,1,
R2474,correrías,758,word,2,True,5,1.116075038909912,1,
R2474,bailarían,759,word,2,True,5,0.5778908729553223,1,
R2474,comía,760,word,2,True,5,0.6259536743164062,1,
R2474,vendía,761,word,2,True,5,0.5841400623321533,1,
R2474,ceflía,762,word,1,True,5,0.6558480262756348,2,
R2474,ardías,763,word,2,True,5,0.7048301696777344,1,
R2474,honderemos,764,word,1,True,5,0.6599109172821045,2,
R2474,ritías,765,word,1,True,5,1.0909600257873535,2,
R2474,rotábamos,766,word,2,True,5,0.8139538764953613,1,
R2474,cichiríamos,767,word,1,True,5,0.6380679607391357,2,
R2474,imías,768,word,1,True,5,0.7169432640075684,2,
R2474,maftaba,769,word,1,True,5,0.784912109375,2,
R2474,quijábamos,770,word,1,True,5,0.6770470142364502,2,
R2474,fundiría,771,word,2,True,5,0.851902961730957,1,
R2474,comerá,772,word,2,True,5,0.5489192008972168,1,
R2474,hondíamos,773,word,1,True,5,0.6103470325469971,2,
R2474,chanrabas,774,word,1,True,5,0.7277810573577881,2,
R2474,sumaríamos,775,word,2,True,5,0.7778210639953613,1,
R2474,bigábamos,776,word,1,True,5,1.0791029930114746,2,
R2474,galarán,777,word,1,True,5,1.5202550888061523,2,
R2474,cuarría,778,word,1,True,5,1.6370420455932617,2,
R2474,seserías,779,word,1,True,5,0.9639260768890381,2,
R2474,bruvirían,780,word,1,True,5,0.6138079166412354,2,
R2474,fanían,781,word,1,True,6,3.677885055541992,2,
R2474,sauaríamos,782,word,1,True,6,0.8152098655700684,2,
R2474,retaría,783,word,2,True,6,0.742729902267456,1,
R2474,coserá,784,word,2,True,6,0.6778261661529541,1,
R2474,subirían,785,word,2,True,6,0.6071949005126953,1,
R2474,quemaría,786,word,2,True,6,0.5619950294494629,1,
R2474,focaba,787,word,2,False,6,0.7536258697509766,2,
R2474,gruñíamos,788,word,2,True,6,0.7020330429077148,1,
R2474,honderá,789,word,1,True,6,0.9088811874389648,2,
R2474,tujíamos,790,word,1,True,6,0.8318703174591064,2,
R2474,luntirían,791,word,1,True,6,0.7191269397735596,2,
R2474,frinderá,792,word,1,True,6,1.3120079040527344,2,
R2474,cetábamos,793,word,1,True,6,0.9998421669006348,2,
R2474,pavaba,794,word,1,True,6,0.6796352863311768,2,
R2474,gruñiremos,795,word,2,True,6,0.6498579978942871,1,
R2474,somerás,796,word,2,False,6,0.9909811019897461,2,
R2474,imirán,797,word,1,True,6,1.087078332901001,2,
R2474,somía,798,word,2,False,6,0.8707630634307861,2,
R2474,imiremos,799,word,1,True,6,1.5419321060180664,2,
R2474,frinderás,800,word,1,True,6,1.1549291610717773,2,
R2474,jurarán,801,word,2,True,6,0.6549272537231445,1,
R2474,coserán,802,word,2,True,6,0.6898722648620605,1,
R2474,bruviría,803,word,1,True,6,1.5838730335235596,2,
R2474,bimaré,804,word,1,True,6,0.7748310565948486,2,
R2474,cisarían,805,word,1,True,6,0.6676559448242188,2,
R2474,cetarías,806,word,1,True,6,0.8019802570343018,2,
R2474,fundirás,807,word,2,True,6,0.6139490604400635,1,
R2474,lachías,808,word,1,True,6,0.6198270320892334,2,
R2474,faníamos,809,word,1,True,6,0.776918888092041,2,
R2474,jurábamos,810,word,2,True,6,0.6319749355316162,1,
R2474,mertábamos,811,word,1,True,6,0.8710019588470459,2,
R2474,formábamos,812,word,2,True,6,1.2001469135284424,1,
R2474,corrían,813,word,2,True,6,0.6199569702148438,1,
R2474,eplaría,814,word,1,True,6,0.585737943649292,2,
R2474,cubriremos,815,word,2,True,6,0.8553578853607178,1,
R2474,hondería,816,word,1,True,6,0.6554179191589355,2,
R2474,narraría,817,word,2,True,6,0.5869390964508057,1,
R2474,cumpliría,818,word,2,True,6,0.5717260837554932,1,
R2474,lailarían,819,word,1,True,6,0.6170268058776855,2,
R2474,besarían,820,word,2,True,6,1.04075026512146,1,
R2474,poreríamos,821,word,1,True,6,1.927696943283081,2,
R2474,subía,822,word,2,True,6,0.5170011520385742,1,
R2474,mardiré,823,word,1,True,6,1.7769110202789307,2,
R2474,moncerán,824,word,1,True,6,1.9580039978027344,2,
R2474,mardíamos,825,word,1,True,6,1.5888261795043945,2,
R2474,nadaba,826,word,2,True,6,0.6880688667297363,1,
R2474,gacharán,827,word,1,True,6,0.7922379970550537,2,
R2474,sumará,828,word,2,True,6,0.6471319198608398,1,
R2474,sauábamos,829,word,1,True,6,0.7310910224914551,2,
R2474,correremos,830,word,2,True,6,0.6068973541259766,1,
R2474,ceterías,831,word,1,True,6,0.7201359272003174,2,
R2474,cederíamos,832,word,1,False,6,0.8173260688781738,1,
R2474,sindabas,833,word,1,True,6,0.6188840866088867,2,
R2474,lacheremos,834,word,1,True,6,0.6501669883728027,2,
R2474,pavaré,835,word,1,True,6,1.1311209201812744,2,
R2474,lucharíamos,836,word,1,False,6,0.8770449161529541,1,
R2474,bigaban,837,word,1,True,6,0.734210729598999,2,
R2474,partías,838,word,2,True,6,0.6337642669677734,1,
R2474,runábamos,839,word,2,False,6,1.4137721061706543,2,
R2474,luchábamos,840,word,2,True,6,0.8331122398376465,1,
R2474,cipíamos,841,word,1,True,6,0.8080639839172363,2,
R2474,mertarán,842,word,1,True,6,0.684434175491333,2,
R2474,prenderemos,843,word,2,True,6,1.2934060096740723,1,
R2474,fanerías,844,word,1,True,6,1.0049781799316406,2,
R2474,ritía,845,word,1,True,6,1.2532131671905518,2,
R2474,pavábamos,846,word,1,True,6,0.7355473041534424,2,
R2474,charlaría,847,word,1,False,6,1.031182050704956,1,
R2474,runaré,848,word,1,True,6,2.2241461277008057,2,
R2474,tuplirás,849,word,1,True,6,0.64516282081604,2,
R2474,luntiremos,850,word,1,True,6,0.7329638004302979,2,
R2474,retarán,851,word,2,True,6,0.6950228214263916,1,
R2474,seseríamos,852,word,1,True,6,0.6907711029052734,2,
R2474,burraremos,853,word,1,True,6,1.2808079719543457,2,
R2474,comeré,854,word,2,True,6,0.9060349464416504,1,
R2474,cuarriríamos,855,word,1,True,6,1.0578577518463135,2,
R2474,sufriría,856,word,2,True,6,0.7108678817749023,1,
R2474,frindía,857,word,1,True,6,1.361166000366211,2,
R2474,narrarías,858,word,2,True,6,2.353839874267578,1,
R2474,quemaba,859,word,2,True,6,0.6038498878479004,1,
R2474,zusábamos,860,word,1,True,6,1.2290449142456055,2,
R2474,toseré,861,word,2,True,6,0.8049571514129639,1,
R2474,rondaban,862,word,2,True,6,1.019982099533081,1,
R2474,cumplirías,863,word,2,True,6,0.6210238933563232,1,
R2474,sufrirán,864,word,2,True,6,0.7257819175720215,1,
R2474,vultarán,865,word,2,False,6,0.6909990310668945,2,
R2474,cenarías,866,word,2,True,6,0.7520091533660889,1,
R2474,morderemos,867,word,2,True,6,0.6768069267272949,1,
R2474,cisaríamos,868,word,1,True,6,0.9090468883514404,2,
R2474,mardirían,869,word,1,True,6,3.0292108058929443,2,
R2474,besaba,870,word,2,True,6,0.7763431072235107,1,
R2474,gacharía,871,word,1,True,6,1.6793489456176758,2,
R2474,cortarán,872,word,2,True,6,0.6869990825653076,1,
R2474,ciperemos,873,word,1,True,6,0.8579258918762207,2,
R2474,lucharías,874,word,2,True,6,0.858752965927124,1,
R2474,unirían,875,word,2,True,6,0.6200482845306396,1,
R2474,cisarás,876,word,1,True,6,1.0236232280731201,2,
R2474,sesía,877,word,1,True,6,1.328014850616455,2,
R2474,besarás,878,word,2,True,6,0.5334198474884033,1,
R2474,somías,879,word,2,False,6,2.197948932647705,2,
R2474,maftaremos,880,word,1,True,6,0.6981370449066162,2,
R2474,venderías,881,word,2,True,6,0.651818037033081,1,
R2474,vultábamos,882,word,1,True,6,1.0060398578643799,2,
R2474,partirás,883,word,2,True,6,0.8090229034423828,1,
R2474,cichirá,884,word,1,True,6,0.8237078189849854,2,
R2474,eplaba,885,word,1,True,6,0.6319711208343506,2,
R2474,mertaban,886,word,1,True,6,0.6609539985656738,2,
R2474,rayaré,887,word,2,True,6,0.6997618675231934,1,
R2474,ceterás,888,word,1,True,6,0.7377920150756836,2,
R2474,lacheríamos,889,word,1,True,6,0.8200030326843262,2,
R2474,bruviremos,890,word,1,True,6,0.6989302635192871,2,
R2474,mardían,891,word,1,True,6,0.6649632453918457,2,
R2474,formaría,892,word,2,True,6,0.6729378700256348,1,
R2474,pactábamos,893,word,2,True,6,1.3047990798950195,1,
R2474,ciperían,894,word,1,True,6,0.6398651599884033,2,
R2474,cumplía,895,word,2,True,6,0.7450070381164551,1,
R2474,rayabas,896,word,2,True,6,0.5732128620147705,1,
R2474,sindarían,897,word,1,True,6,1.0419719219207764,2,
R2474,faltaba,898,word,2,True,6,0.6100301742553711,1,
R2474,cetías,899,word,1,True,6,0.9530868530273438,2,
R2474,vultará,900,word,1,True,6,1.586798906326294,2,
R2474,lailaba,901,word,1,True,6,0.7611069679260254,2,
R2474,lorgaremos,902,word,1,True,6,4.837214946746826,2,
R2474,anrían,903,word,1,True,6,1.4417009353637695,2,
R2474,arderán,904,word,2,True,6,0.7378721237182617,1,
R2474,fanía,905,word,1,True,6,0.8460588455200195,2,
R2474,chanrarían,906,word,1,True,6,0.8437891006469727,2,
R2474,zusaba,907,word,1,True,6,0.5197041034698486,2,
R2474,rotabas,908,word,2,True,6,1.0801057815551758,1,
R2474,cichiría,909,word,1,True,6,1.616919994354248,2,
R2474,rondarán,910,word,2,True,6,0.7758269309997559,1,
R2474,sumaré,911,word,2,True,6,0.776925802230835,1,
R2474,porerías,912,word,1,True,6,1.165781021118164,2,
R2474,faltaría,913,word,2,True,6,0.5569329261779785,1,
R2474,anrías,914,word,1,True,6,0.9551100730895996,2,
R2474,somíamos,915,word,1,True,6,4.050288915634155,2,
R2474,runaban,916,word,1,True,6,1.0699100494384766,2,
R2474,cetía,917,word,1,True,6,0.6109139919281006,2,
R2474,zusaríamos,918,word,1,True,6,0.6150627136230469,2,
R2474,lailará,919,word,1,True,6,0.6513450145721436,2,
R2474,maftará,920,word,1,True,6,0.5818789005279541,2,
R2474,mertaríamos,921,word,1,True,6,0.7700281143188477,2,
R2474,partiré,922,word,2,True,6,1.4399549961090088,1,
R2474,bailarán,923,word,2,True,6,0.5257327556610107,1,
R2474,ceteríamos,924,word,1,True,6,0.9926888942718506,2,
R2474,bimaría,925,word,1,True,6,0.6795659065246582,2,
R2474,lucharemos,926,word,2,True,6,0.9079041481018066,1,
R2474,mardía,927,word,1,True,6,0.6049230098724365,2,
R2474,lacheré,928,word,1,True,6,0.6307671070098877,2,
R2474,prenderán,929,word,2,True,6,0.8368508815765381,1,
R2474,sindaban,930,word,1,True,6,0.6289782524108887,2,
R2474,lailaban,931,word,1,True,6,0.7708039283752441,2,
R2474,lucharían,932,word,2,True,6,0.8169522285461426,1,
R2474,prenderá,933,word,2,True,6,0.6130979061126709,1,
R2474,cichirás,934,word,1,True,6,0.7087657451629639,2,
R2474,anreremos,935,word,1,True,6,0.9926791191101074,2,
R2474,uniremos,936,word,2,True,6,0.938002347946167,1,
R2474,maftabas,937,word,1,True,7,0.7524468898773193,2,
R2474,charlaban,938,word,2,True,7,0.7379028797149658,1,
R2474,pactaba,939,word,2,True,7,1.0100669860839844,1,
R2474,bruvirán,940,word,1,True,7,1.386946678161621,2,
R2474,sumarás,941,word,2,True,7,0.8247437477111816,1,
R2474,cubrirán,942,word,2,True,7,1.6960067749023438,1,
R2474,sauaré,943,word,1,True,7,0.7136998176574707,2,
R2474,luchará,944,word,2,True,7,0.6949081420898438,1,
R2474,sumaría,945,word,2,True,7,0.6849298477172852,1,
R2474,venderían,946,word,2,True,7,0.5964481830596924,1,
R2474,gachaba,947,word,1,True,7,0.8288419246673584,2,
R2474,narraríamos,948,word,2,True,7,0.7179398536682129,1,
R2474,ceteremos,949,word,1,True,7,1.460352897644043,2,
R2474,mardiríamos,950,word,1,True,7,2.2435991764068604,2,
R2474,somerá,951,word,2,False,7,0.6028990745544434,2,
R2474,mordían,952,word,2,True,7,0.8847811222076416,1,
R2474,comerán,953,word,2,True,7,0.5470669269561768,1,
R2474,burrabas,954,word,1,True,7,2.6607680320739746,2,
R2474,vendían,955,word,2,True,7,1.115013837814331,1,
R2474,rimaban,956,word,1,False,7,0.8229577541351318,1,
R2474,monceríamos,957,word,1,True,7,1.5489919185638428,2,
R2474,seserían,958,word,1,True,7,0.7519192695617676,2,
R2474,fundía,959,word,2,True,7,0.5977857112884521,1,
R2474,meterán,960,word,2,True,7,0.7301533222198486,1,
R2474,toserá,961,word,2,True,7,0.5791702270507812,1,
R2474,bailarías,962,word,2,True,7,0.48890185356140137,1,
R2474,honderías,963,word,1,True,7,0.7467901706695557,2,
R2474,fundiré,964,word,2,True,7,0.6439659595489502,1,
R2474,morderías,965,word,2,True,7,0.7187669277191162,1,
R2474,gruñiríamos,966,word,2,True,7,0.814626932144165,1,
R2474,bruvían,967,word,1,True,7,0.6640312671661377,2,
R2474,subiría,968,word,2,True,7,0.614901065826416,1,
R2474,galará,969,word,1,True,7,1.1469550132751465,2,
R2474,obrabas,970,word,2,True,7,1.184999942779541,1,
R2474,focaría,971,word,2,False,7,0.9916872978210449,2,
R2474,partiríamos,972,word,2,True,7,0.6828558444976807,1,
R2474,riteríamos,973,word,2,False,7,1.3090031147003174,2,
R2474,juraban,974,word,2,True,7,1.331514835357666,1,
R2474,cubriría,975,word,2,True,7,2.160722017288208,1,
R2474,lailaremos,976,word,1,True,7,0.6149182319641113,2,
R2474,galarían,977,word,1,True,7,0.6037693023681641,2,
R2474,mertaré,978,word,1,True,7,1.2380790710449219,2,
R2474,narrarás,979,word,2,True,7,0.8260097503662109,1,
R2474,fundirían,980,word,2,True,7,0.5848889350891113,1,
R2474,cuarrirá,981,word,1,True,7,1.464034080505371,2,
R2474,narraremos,982,word,2,True,7,0.7256660461425781,1,
R2474,cedíamos,983,word,1,False,7,0.7089309692382812,1,
R2474,imíamos,984,word,1,True,7,0.7090530395507812,2,
R2474,bailaba,985,word,2,True,7,0.7029330730438232,1,
R2474,casarían,986,word,2,True,7,0.936892032623291,1,
R2474,rimaré,987,word,1,False,7,1.2550342082977295,1,
R2474,tujiremos,988,word,1,True,7,0.6229238510131836,2,
R2474,rayaban,989,word,2,True,7,0.5627222061157227,1,
R2474,sufrías,990,word,2,True,7,0.6798610687255859,1,
R2474,barrías,991,word,2,True,7,0.7574288845062256,1,
R2474,imiríamos,992,word,1,True,7,0.8939990997314453,2,
R2474,ceflíamos,993,word,1,True,7,0.6880640983581543,2,
R2474,mardirá,994,word,1,True,7,1.7950139045715332,2,
R2474,faltabas,995,word,2,True,7,0.5928161144256592,1,
R2474,maftábamos,996,word,1,True,7,0.7860639095306396,2,
R2474,narrarían,997,word,2,True,7,0.5681509971618652,1,
R2474,besarías,998,word,2,True,7,0.5824630260467529,1,
R2474,cipías,999,word,1,True,7,0.6469669342041016,2,
R2474,runaría,1000,word,1,True,7,1.254991054534912,2,
R2474,mardías,1001,word,1,True,7,1.3707420825958252,2,
R2474,casarías,1002,word,2,True,7,1.6999092102050781,1,
R2474,gacharás,1003,word,1,True,7,1.7207367420196533,2,
R2474,prendíamos,1004,word,2,True,7,0.6468691825866699,1,
R2474,cumplíamos,1005,word,2,True,7,0.5479309558868408,1,
R2474,cederán,1006,word,1,False,7,1.1909570693969727,1,
R2474,riteremos,1007,word,1,True,7,2.379002809524536,2,
R2474,fundíamos,1008,word,2,True,7,0.5807878971099854,1,
R2474,lorgaríamos,1009,word,1,True,7,2.976921796798706,2,
R2474,somerían,1010,word,2,False,7,0.8662500381469727,2,
R2474,sumarían,1011,word,2,True,7,0.8418459892272949,1,
R2474,gachabas,1012,word,1,True,7,0.7589290142059326,2,
R2474,cetará,1013,word,1,True,7,1.0358858108520508,2,
R2474,bimabas,1014,word,1,True,7,0.6831381320953369,2,
R2474,nadarías,1015,word,2,True,7,0.5880680084228516,1,
R2474,sumabas,1016,word,2,True,7,0.5627429485321045,1,
R2474,anreríamos,1017,word,1,True,7,0.8318679332733154,2,
R2474,ciperás,1018,word,1,True,7,0.5940849781036377,2,
R2474,focarás,1019,word,2,False,7,0.5468649864196777,2,
R2474,arderé,1020,word,2,True,7,0.9598507881164551,1,
R2474,venderé,1021,word,2,True,7,0.5281169414520264,1,
R2474,barrerás,1022,word,2,True,7,0.8417360782623291,1,
R2474,bimábamos,1023,word,1,True,7,1.1137609481811523,2,
R2474,pavará,1024,word,1,True,7,1.455989122390747,2,
R2474,formaba,1025,word,2,True,7,0.5248191356658936,1,
R2474,comerían,1026,word,2,True,7,0.5598270893096924,1,
R2474,cortará,1027,word,2,True,7,0.7000651359558105,1,
R2474,lacherías,1028,word,1,True,7,1.051844835281372,2,
R2474,rimábamos,1029,word,1,False,7,0.8100869655609131,1,
R2474,monceré,1030,word,1,True,7,0.9848840236663818,2,
R2474,cipían,1031,word,1,True,7,0.5919589996337891,2,
R2474,vendíamos,1032,word,2,True,7,0.5487768650054932,1,
R2474,lucharás,1033,word,2,True,7,0.5404202938079834,1,
R2474,poríamos,1034,word,1,True,7,1.5801548957824707,2,
R2474,riterían,1035,word,1,True,7,0.9118168354034424,2,
R2474,frindías,1036,word,1,True,7,0.6878938674926758,2,
R2474,cetaban,1037,word,1,True,7,0.6589550971984863,2,
R2474,cichirán,1038,word,1,True,7,0.5888261795043945,2,
R2474,pavarías,1039,word,1,True,7,0.5877318382263184,2,
R2474,bimarían,1040,word,1,True,7,0.5738739967346191,2,
R2474,casaba,1041,word,2,True,7,0.7440948486328125,1,
R2474,bimaremos,1042,word,1,True,7,0.605139970779419,2,
R2474,chanrarán,1043,word,1,True,7,0.8837630748748779,2,
R2474,tupliría,1044,word,1,True,7,0.6758279800415039,2,
R2474,quijaremos,1045,word,1,True,7,0.5689620971679688,2,
R2474,rimarás,1046,word,1,False,7,0.7779231071472168,1,
R2474,focábamos,1047,word,2,False,7,0.6241030693054199,2,
R2474,retábamos,1048,word,2,True,7,0.9857668876647949,1,
R2474,toserían,1049,word,2,True,7,0.6210863590240479,1,
R2474,cuarrirás,1050,word,1,True,7,0.7260761260986328,2,
R2474,nadarán,1051,word,2,True,7,0.6579768657684326,1,
R2474,sauaban,1052,word,1,True,7,0.970797061920166,2,
R2474,sindarías,1053,word,1,True,7,1.1360540390014648,2,
R2474,prendía,1054,word,2,True,7,0.6188452243804932,1,
R2474,lamía,1055,word,2,True,7,3.2739899158477783,1,
R2474,fanería,1056,word,1,True,7,0.7286980152130127,2,
R2474,gruñiré,1057,word,2,True,7,0.7397778034210205,1,
R2474,anrerías,1058,word,1,True,7,0.7315020561218262,2,
R2474,riterías,1059,word,1,True,7,2.17476487159729,2,
R2474,sauaría,1060,word,1,True,7,0.661067008972168,2,
R2474,casarán,1061,word,2,True,7,0.7209370136260986,1,
R2474,partirían,1062,word,2,True,7,0.5867428779602051,1,
R2474,focaríamos,1063,word,2,False,7,0.6750569343566895,2,
R2474,rayarías,1064,word,2,True,7,0.4952428340911865,1,
R2474,someremos,1065,word,1,True,7,1.6208488941192627,2,
R2474,jurabas,1066,word,2,True,7,0.5888409614562988,1,
R2474,temían,1067,word,2,True,7,0.760800838470459,1,
R2474,temía,1068,word,2,True,7,0.6008307933807373,1,
R2474,quemará,1069,word,2,True,7,0.6408591270446777,1,
R2474,someríamos,1070,word,1,True,7,1.117905855178833,2,
R2474,tujirás,1071,word,1,True,7,0.6838850975036621,2,
R2474,mertarías,1072,word,1,True,7,0.8310232162475586,2,
R2474,sauará,1073,word,1,True,7,0.56296706199646,2,
R2474,charlaríamos,1074,word,2,True,7,0.7928321361541748,1,
R2474,gacharé,1075,word,1,True,7,0.798048734664917,2,
R2474,formaremos,1076,word,1,False,7,1.9089617729187012,1,
R2474,cortaba,1077,word,2,True,7,0.8518478870391846,1,
R2474,nadarás,1078,word,2,True,7,0.6098361015319824,1,
R2474,focarían,1079,word,2,False,7,0.5976598262786865,2,
R2474,obraban,1080,word,2,True,7,0.9879143238067627,1,
R2474,charlarías,1081,word,2,True,7,0.6200141906738281,1,
R2474,burrarás,1082,word,1,True,7,0.6358828544616699,2,
R2474,lorgará,1083,word,1,True,7,1.0746681690216064,2,
R2474,mordía,1084,word,2,True,7,0.7999770641326904,1,
R2474,lorgarían,1085,word,1,True,7,1.910999059677124,2,
R2474,moncían,1086,word,1,True,7,0.6729772090911865,2,
R2474,burraríamos,1087,word,1,True,7,0.5969011783599854,2,
R2474,prendería,1088,word,2,True,7,0.5919969081878662,1,
R2474,maftarían,1089,word,1,True,7,0.6426689624786377,2,
R2474,mertaba,1090,word,1,True,7,1.0299749374389648,2,
R2474,cumpliré,1091,word,2,True,7,0.6619508266448975,1,
R2474,barrían,1092,word,2,True,7,0.9490017890930176,1,
