workerid,proliferate.condition,correct_answer,prime,probeContent,response,rt,slide_number_in_experiment,target,trial_type,catch_trials,subject_information.age,subject_information.assess,subject_information.chinese_country_years,subject_information.chinese_family_years,subject_information.chinese_school_work_years_spoken,subject_information.chinese_school_work_years_written,subject_information.comments,subject_information.education,subject_information.gender,subject_information.otherLanguage,subject_information.problems,subject_information.prolific_ID,system.Browser,system.OS,system.screenH,system.screenW,time_in_minutes,error
19,condition1,1,準,準,f,2195,8,腦,con,[],25,No,9,25,9,9,无,3,Female,普通话，英文,无,66d0e03800acfdbc181f1450,Chrome,Mac,900,1440,4.313183333333333,
19,condition1,1,輸,輸,f,2056,9,贏,sem-sem,[],25,No,9,25,9,9,无,3,Female,普通话，英文,无,66d0e03800acfdbc181f1450,Chrome,Mac,900,1440,4.313183333333333,
19,condition1,2,湧,敢,j,1828,10,敢,phon-sem,[],25,No,9,25,9,9,无,3,Female,普通话，英文,无,66d0e03800acfdbc181f1450,Chrome,Mac,900,1440,4.313183333333333,
19,condition1,2,炸,查,j,1898,11,查,con,[],25,No,9,25,9,9,无,3,Female,普通话，英文,无,66d0e03800acfdbc181f1450,Chrome,Mac,900,1440,4.313183333333333,
19,condition1,1,繪,繪,f,2126,12,港,con,[],25,No,9,25,9,9,无,3,Female,普通话，英文,无,66d0e03800acfdbc181f1450,Chrome,Mac,900,1440,4.313183333333333,
19,condition1,2,濃,田,j,1920,13,田,phon-sem,[],25,No,9,25,9,9,无,3,Female,普通话，英文,无,66d0e03800acfdbc181f1450,Chrome,Mac,900,1440,4.313183333333333,
19,condition1,2,盔,甲,j,3093,14,甲,sem-sem,[],25,No,9,25,9,9,无,3,Female,普通话，英文,无,66d0e03800acfdbc181f1450,Chrome,Mac,900,1440,4.313183333333333,
19,condition1,1,擒,擒,f,1973,15,獸,phon-sem,[],25,No,9,25,9,9,无,3,Female,普通话，英文,无,66d0e03800acfdbc181f1450,Chrome,Mac,900,1440,4.313183333333333,
19,condition1,1,搔,搔,f,1938,16,癢,sem-sem,[],25,No,9,25,9,9,无,3,Female,普通话，英文,无,66d0e03800acfdbc181f1450,Chrome,Mac,900,1440,4.313183333333333,
19,condition1,1,渡,渡,f,1930,17,量,phon-sem,[],25,No,9,25,9,9,无,3,Female,普通话，英文,无,66d0e03800acfdbc181f1450,Chrome,Mac,900,1440,4.313183333333333,
19,condition1,1,億,億,f,1917,18,義,phon-sem,[],25,No,9,25,9,9,无,3,Female,普通话，英文,无,66d0e03800acfdbc181f1450,Chrome,Mac,900,1440,4.313183333333333,
19,condition1,2,儒,須,j,1846,19,須,phon-phon,[],25,No,9,25,9,9,无,3,Female,普通话，英文,无,66d0e03800acfdbc181f1450,Chrome,Mac,900,1440,4.313183333333333,
19,condition1,2,早,晚,j,1730,20,晚,sem-sem,[],25,No,9,25,9,9,无,3,Female,普通话，英文,无,66d0e03800acfdbc181f1450,Chrome,Mac,900,1440,4.313183333333333,
19,condition1,2,垃,圾,j,1747,21,圾,sem-sem,[],25,No,9,25,9,9,无,3,Female,普通话，英文,无,66d0e03800acfdbc181f1450,Chrome,Mac,900,1440,4.313183333333333,
19,condition1,2,企,天,j,1666,22,天,con,[],25,No,9,25,9,9,无,3,Female,普通话，英文,无,66d0e03800acfdbc181f1450,Chrome,Mac,900,1440,4.313183333333333,
19,condition1,1,離,離,f,1757,23,開,sem-sem,[],25,No,9,25,9,9,无,3,Female,普通话，英文,无,66d0e03800acfdbc181f1450,Chrome,Mac,900,1440,4.313183333333333,
19,condition1,2,騙,貶,j,1724,24,貶,phon-phon,[],25,No,9,25,9,9,无,3,Female,普通话，英文,无,66d0e03800acfdbc181f1450,Chrome,Mac,900,1440,4.313183333333333,
19,condition1,2,線,權,j,1745,25,權,phon-phon,[],25,No,9,25,9,9,无,3,Female,普通话，英文,无,66d0e03800acfdbc181f1450,Chrome,Mac,900,1440,4.313183333333333,
19,condition1,1,虐,虐,f,1953,26,待,sem-sem,[],25,No,9,25,9,9,无,3,Female,普通话，英文,无,66d0e03800acfdbc181f1450,Chrome,Mac,900,1440,4.313183333333333,
19,condition1,1,殖,殖,f,1876,27,游,con,[],25,No,9,25,9,9,无,3,Female,普通话，英文,无,66d0e03800acfdbc181f1450,Chrome,Mac,900,1440,4.313183333333333,
19,condition1,1,峽,峽,f,2281,28,述,con,[],25,No,9,25,9,9,无,3,Female,普通话，英文,无,66d0e03800acfdbc181f1450,Chrome,Mac,900,1440,4.313183333333333,
19,condition1,1,饑,饑,f,1940,29,餓,sem-sem,[],25,No,9,25,9,9,无,3,Female,普通话，英文,无,66d0e03800acfdbc181f1450,Chrome,Mac,900,1440,4.313183333333333,
19,condition1,1,惶,惶,f,2351,30,帝,phon-sem,[],25,No,9,25,9,9,无,3,Female,普通话，英文,无,66d0e03800acfdbc181f1450,Chrome,Mac,900,1440,4.313183333333333,
19,condition1,2,遲,夕,j,1731,31,夕,phon-phon,[],25,No,9,25,9,9,无,3,Female,普通话，英文,无,66d0e03800acfdbc181f1450,Chrome,Mac,900,1440,4.313183333333333,
19,condition1,2,螺,類,j,1915,32,類,phon-phon,[],25,No,9,25,9,9,无,3,Female,普通话，英文,无,66d0e03800acfdbc181f1450,Chrome,Mac,900,1440,4.313183333333333,
19,condition1,1,諒,諒,f,1915,33,經,phon-phon,[],25,No,9,25,9,9,无,3,Female,普通话，英文,无,66d0e03800acfdbc181f1450,Chrome,Mac,900,1440,4.313183333333333,
19,condition1,2,檔,諾,j,1690,34,諾,con,[],25,No,9,25,9,9,无,3,Female,普通话，英文,无,66d0e03800acfdbc181f1450,Chrome,Mac,900,1440,4.313183333333333,
19,condition1,1,喧,喧,f,1901,35,佈,phon-sem,[],25,No,9,25,9,9,无,3,Female,普通话，英文,无,66d0e03800acfdbc181f1450,Chrome,Mac,900,1440,4.313183333333333,
19,condition1,1,城,城,f,1829,36,功,phon-sem,[],25,No,9,25,9,9,无,3,Female,普通话，英文,无,66d0e03800acfdbc181f1450,Chrome,Mac,900,1440,4.313183333333333,
19,condition1,2,稻,米,j,1766,37,米,sem-sem,[],25,No,9,25,9,9,无,3,Female,普通话，英文,无,66d0e03800acfdbc181f1450,Chrome,Mac,900,1440,4.313183333333333,
19,condition1,1,觸,觸,f,2015,38,屬,phon-phon,[],25,No,9,25,9,9,无,3,Female,普通话，英文,无,66d0e03800acfdbc181f1450,Chrome,Mac,900,1440,4.313183333333333,
19,condition1,1,紐,紐,f,2331,39,醜,phon-phon,[],25,No,9,25,9,9,无,3,Female,普通话，英文,无,66d0e03800acfdbc181f1450,Chrome,Mac,900,1440,4.313183333333333,
19,condition1,1,擁,擁,f,1805,40,賞,con,[],25,No,9,25,9,9,无,3,Female,普通话，英文,无,66d0e03800acfdbc181f1450,Chrome,Mac,900,1440,4.313183333333333,
19,condition1,1,楣,楣,f,1832,41,毛,phon-sem,[],25,No,9,25,9,9,无,3,Female,普通话，英文,无,66d0e03800acfdbc181f1450,Chrome,Mac,900,1440,4.313183333333333,
19,condition1,2,跑,剝,j,1604,42,剝,phon-phon,[],25,No,9,25,9,9,无,3,Female,普通话，英文,无,66d0e03800acfdbc181f1450,Chrome,Mac,900,1440,4.313183333333333,
19,condition1,1,梯,梯,f,1733,43,帝,phon-phon,[],25,No,9,25,9,9,无,3,Female,普通话，英文,无,66d0e03800acfdbc181f1450,Chrome,Mac,900,1440,4.313183333333333,
19,condition1,1,根,根,f,1754,44,候,con,[],25,No,9,25,9,9,无,3,Female,普通话，英文,无,66d0e03800acfdbc181f1450,Chrome,Mac,900,1440,4.313183333333333,
19,condition1,2,轎,瞧,j,1664,45,瞧,phon-phon,[],25,No,9,25,9,9,无,3,Female,普通话，英文,无,66d0e03800acfdbc181f1450,Chrome,Mac,900,1440,4.313183333333333,
19,condition1,1,槌,槌,f,1696,46,錐,phon-phon,[],25,No,9,25,9,9,无,3,Female,普通话，英文,无,66d0e03800acfdbc181f1450,Chrome,Mac,900,1440,4.313183333333333,
19,condition1,1,縮,縮,f,1934,47,素,phon-phon,[],25,No,9,25,9,9,无,3,Female,普通话，英文,无,66d0e03800acfdbc181f1450,Chrome,Mac,900,1440,4.313183333333333,
19,condition1,2,脆,微,j,1720,48,微,phon-phon,[],25,No,9,25,9,9,无,3,Female,普通话，英文,无,66d0e03800acfdbc181f1450,Chrome,Mac,900,1440,4.313183333333333,
19,condition1,1,擺,擺,f,1755,49,霸,phon-phon,[],25,No,9,25,9,9,无,3,Female,普通话，英文,无,66d0e03800acfdbc181f1450,Chrome,Mac,900,1440,4.313183333333333,
19,condition1,1,憾,憾,f,1785,50,敢,phon-phon,[],25,No,9,25,9,9,无,3,Female,普通话，英文,无,66d0e03800acfdbc181f1450,Chrome,Mac,900,1440,4.313183333333333,
19,condition1,1,婚,婚,f,2394,52,迷,phon-sem,[],25,No,9,25,9,9,无,3,Female,普通话，英文,无,66d0e03800acfdbc181f1450,Chrome,Mac,900,1440,4.313183333333333,
19,condition1,1,松,松,f,1810,53,工,phon-phon,[],25,No,9,25,9,9,无,3,Female,普通话，英文,无,66d0e03800acfdbc181f1450,Chrome,Mac,900,1440,4.313183333333333,
19,condition1,2,喜,歡,j,1609,54,歡,sem-sem,[],25,No,9,25,9,9,无,3,Female,普通话，英文,无,66d0e03800acfdbc181f1450,Chrome,Mac,900,1440,4.313183333333333,
19,condition1,2,瑰,殺,j,1603,55,殺,con,[],25,No,9,25,9,9,无,3,Female,普通话，英文,无,66d0e03800acfdbc181f1450,Chrome,Mac,900,1440,4.313183333333333,
19,condition1,2,輾,斬,j,1690,56,斬,phon-phon,[],25,No,9,25,9,9,无,3,Female,普通话，英文,无,66d0e03800acfdbc181f1450,Chrome,Mac,900,1440,4.313183333333333,
19,condition1,1,讚,讚,f,1767,57,成,phon-sem,[],25,No,9,25,9,9,无,3,Female,普通话，英文,无,66d0e03800acfdbc181f1450,Chrome,Mac,900,1440,4.313183333333333,
19,condition1,1,寫,寫,f,1903,58,字,sem-sem,[],25,No,9,25,9,9,无,3,Female,普通话，英文,无,66d0e03800acfdbc181f1450,Chrome,Mac,900,1440,4.313183333333333,
19,condition1,2,冰,冷,j,2103,59,冷,sem-sem,[],25,No,9,25,9,9,无,3,Female,普通话，英文,无,66d0e03800acfdbc181f1450,Chrome,Mac,900,1440,4.313183333333333,
19,condition1,1,提,提,f,1695,60,市,phon-phon,[],25,No,9,25,9,9,无,3,Female,普通话，英文,无,66d0e03800acfdbc181f1450,Chrome,Mac,900,1440,4.313183333333333,
19,condition1,2,首,俊,j,2099,61,俊,con,[],25,No,9,25,9,9,无,3,Female,普通话，英文,无,66d0e03800acfdbc181f1450,Chrome,Mac,900,1440,4.313183333333333,
19,condition1,2,革,命,j,1666,62,命,sem-sem,[],25,No,9,25,9,9,无,3,Female,普通话，英文,无,66d0e03800acfdbc181f1450,Chrome,Mac,900,1440,4.313183333333333,
19,condition1,2,軸,階,j,1604,63,階,con,[],25,No,9,25,9,9,无,3,Female,普通话，英文,无,66d0e03800acfdbc181f1450,Chrome,Mac,900,1440,4.313183333333333,
19,condition1,2,謝,社,j,1677,64,社,phon-phon,[],25,No,9,25,9,9,无,3,Female,普通话，英文,无,66d0e03800acfdbc181f1450,Chrome,Mac,900,1440,4.313183333333333,
19,condition1,1,擅,擅,f,1984,65,廉,con,[],25,No,9,25,9,9,无,3,Female,普通话，英文,无,66d0e03800acfdbc181f1450,Chrome,Mac,900,1440,4.313183333333333,
19,condition1,1,壢,壢,f,1817,66,史,phon-sem,[],25,No,9,25,9,9,无,3,Female,普通话，英文,无,66d0e03800acfdbc181f1450,Chrome,Mac,900,1440,4.313183333333333,
19,condition1,1,司,司,f,1827,67,進,con,[],25,No,9,25,9,9,无,3,Female,普通话，英文,无,66d0e03800acfdbc181f1450,Chrome,Mac,900,1440,4.313183333333333,
19,condition1,2,錶,示,j,1897,68,示,phon-sem,[],25,No,9,25,9,9,无,3,Female,普通话，英文,无,66d0e03800acfdbc181f1450,Chrome,Mac,900,1440,4.313183333333333,
19,condition1,1,財,財,f,1783,69,能,phon-sem,[],25,No,9,25,9,9,无,3,Female,普通话，英文,无,66d0e03800acfdbc181f1450,Chrome,Mac,900,1440,4.313183333333333,
19,condition1,1,漢,漢,f,1859,70,隔,con,[],25,No,9,25,9,9,无,3,Female,普通话，英文,无,66d0e03800acfdbc181f1450,Chrome,Mac,900,1440,4.313183333333333,
19,condition1,1,遂,遂,f,2046,71,喝,con,[],25,No,9,25,9,9,无,3,Female,普通话，英文,无,66d0e03800acfdbc181f1450,Chrome,Mac,900,1440,4.313183333333333,
19,condition1,1,鏗,鏗,j,1673,72,間,phon-phon,[],25,No,9,25,9,9,无,3,Female,普通话，英文,无,66d0e03800acfdbc181f1450,Chrome,Mac,900,1440,4.313183333333333,
19,condition1,2,胸,奴,j,1924,73,奴,phon-sem,[],25,No,9,25,9,9,无,3,Female,普通话，英文,无,66d0e03800acfdbc181f1450,Chrome,Mac,900,1440,4.313183333333333,
19,condition1,2,奴,隸,j,2069,74,隸,sem-sem,[],25,No,9,25,9,9,无,3,Female,普通话，英文,无,66d0e03800acfdbc181f1450,Chrome,Mac,900,1440,4.313183333333333,
19,condition1,1,附,附,f,1996,75,出,phon-sem,[],25,No,9,25,9,9,无,3,Female,普通话，英文,无,66d0e03800acfdbc181f1450,Chrome,Mac,900,1440,4.313183333333333,
19,condition1,1,稀,稀,f,1890,76,望,phon-sem,[],25,No,9,25,9,9,无,3,Female,普通话，英文,无,66d0e03800acfdbc181f1450,Chrome,Mac,900,1440,4.313183333333333,
19,condition1,2,仗,夫,j,1903,77,夫,phon-sem,[],25,No,9,25,9,9,无,3,Female,普通话，英文,无,66d0e03800acfdbc181f1450,Chrome,Mac,900,1440,4.313183333333333,
19,condition1,1,極,極,f,1971,78,損,con,[],25,No,9,25,9,9,无,3,Female,普通话，英文,无,66d0e03800acfdbc181f1450,Chrome,Mac,900,1440,4.313183333333333,
19,condition1,2,攤,南,j,2052,79,南,phon-phon,[],25,No,9,25,9,9,无,3,Female,普通话，英文,无,66d0e03800acfdbc181f1450,Chrome,Mac,900,1440,4.313183333333333,
19,condition1,2,移,勝,j,2291,80,勝,con,[],25,No,9,25,9,9,无,3,Female,普通话，英文,无,66d0e03800acfdbc181f1450,Chrome,Mac,900,1440,4.313183333333333,
19,condition1,2,孝,順,j,2301,81,順,sem-sem,[],25,No,9,25,9,9,无,3,Female,普通话，英文,无,66d0e03800acfdbc181f1450,Chrome,Mac,900,1440,4.313183333333333,
19,condition1,1,廁,廁,f,1820,82,所,sem-sem,[],25,No,9,25,9,9,无,3,Female,普通话，英文,无,66d0e03800acfdbc181f1450,Chrome,Mac,900,1440,4.313183333333333,
19,condition1,1,邦,邦,f,2766,83,鎖,con,[],25,No,9,25,9,9,无,3,Female,普通话，英文,无,66d0e03800acfdbc181f1450,Chrome,Mac,900,1440,4.313183333333333,
19,condition1,1,樣,樣,f,2245,84,輕,con,[],25,No,9,25,9,9,无,3,Female,普通话，英文,无,66d0e03800acfdbc181f1450,Chrome,Mac,900,1440,4.313183333333333,
19,condition1,2,源,因,j,1829,85,因,phon-sem,[],25,No,9,25,9,9,无,3,Female,普通话，英文,无,66d0e03800acfdbc181f1450,Chrome,Mac,900,1440,4.313183333333333,
19,condition1,2,妹,喂,j,1757,86,喂,phon-phon,[],25,No,9,25,9,9,无,3,Female,普通话，英文,无,66d0e03800acfdbc181f1450,Chrome,Mac,900,1440,4.313183333333333,
19,condition1,1,厭,厭,f,1916,87,惡,sem-sem,[],25,No,9,25,9,9,无,3,Female,普通话，英文,无,66d0e03800acfdbc181f1450,Chrome,Mac,900,1440,4.313183333333333,
19,condition1,2,耕,警,j,2299,88,警,phon-phon,[],25,No,9,25,9,9,无,3,Female,普通话，英文,无,66d0e03800acfdbc181f1450,Chrome,Mac,900,1440,4.313183333333333,
19,condition1,2,滑,谷,j,1776,89,谷,phon-phon,[],25,No,9,25,9,9,无,3,Female,普通话，英文,无,66d0e03800acfdbc181f1450,Chrome,Mac,900,1440,4.313183333333333,
19,condition1,1,締,締,f,1823,90,國,phon-sem,[],25,No,9,25,9,9,无,3,Female,普通话，英文,无,66d0e03800acfdbc181f1450,Chrome,Mac,900,1440,4.313183333333333,
19,condition1,2,拒,大,j,2084,91,大,phon-sem,[],25,No,9,25,9,9,无,3,Female,普通话，英文,无,66d0e03800acfdbc181f1450,Chrome,Mac,900,1440,4.313183333333333,
19,condition1,2,誌,願,j,2482,92,願,phon-sem,[],25,No,9,25,9,9,无,3,Female,普通话，英文,无,66d0e03800acfdbc181f1450,Chrome,Mac,900,1440,4.313183333333333,
19,condition1,2,勵,害,j,1714,93,害,phon-sem,[],25,No,9,25,9,9,无,3,Female,普通话，英文,无,66d0e03800acfdbc181f1450,Chrome,Mac,900,1440,4.313183333333333,
19,condition1,2,針,線,j,1629,94,線,sem-sem,[],25,No,9,25,9,9,无,3,Female,普通话，英文,无,66d0e03800acfdbc181f1450,Chrome,Mac,900,1440,4.313183333333333,
19,condition1,2,陌,擺,j,1771,95,擺,phon-phon,[],25,No,9,25,9,9,无,3,Female,普通话，英文,无,66d0e03800acfdbc181f1450,Chrome,Mac,900,1440,4.313183333333333,
19,condition1,2,批,筆,j,1651,96,筆,phon-phon,[],25,No,9,25,9,9,无,3,Female,普通话，英文,无,66d0e03800acfdbc181f1450,Chrome,Mac,900,1440,4.313183333333333,
19,condition1,1,余,余,f,1689,97,別,con,[],25,No,9,25,9,9,无,3,Female,普通话，英文,无,66d0e03800acfdbc181f1450,Chrome,Mac,900,1440,4.313183333333333,
19,condition1,1,浪,浪,f,2194,98,涼,phon-phon,[],25,No,9,25,9,9,无,3,Female,普通话，英文,无,66d0e03800acfdbc181f1450,Chrome,Mac,900,1440,4.313183333333333,
19,condition1,2,仇,恨,j,1809,99,恨,sem-sem,[],25,No,9,25,9,9,无,3,Female,普通话，英文,无,66d0e03800acfdbc181f1450,Chrome,Mac,900,1440,4.313183333333333,
19,condition1,1,緊,緊,f,1898,100,張,sem-sem,[],25,No,9,25,9,9,无,3,Female,普通话，英文,无,66d0e03800acfdbc181f1450,Chrome,Mac,900,1440,4.313183333333333,
19,condition1,2,尷,尬,j,2927,102,尬,sem-sem,[],25,No,9,25,9,9,无,3,Female,普通话，英文,无,66d0e03800acfdbc181f1450,Chrome,Mac,900,1440,4.313183333333333,
19,condition1,2,銀,蓋,j,2056,103,蓋,con,[],25,No,9,25,9,9,无,3,Female,普通话，英文,无,66d0e03800acfdbc181f1450,Chrome,Mac,900,1440,4.313183333333333,
19,condition1,2,剪,刀,j,1728,104,刀,sem-sem,[],25,No,9,25,9,9,无,3,Female,普通话，英文,无,66d0e03800acfdbc181f1450,Chrome,Mac,900,1440,4.313183333333333,
19,condition1,1,雖,雖,f,1831,105,營,con,[],25,No,9,25,9,9,无,3,Female,普通话，英文,无,66d0e03800acfdbc181f1450,Chrome,Mac,900,1440,4.313183333333333,
19,condition1,1,矚,矚,f,2613,106,數,phon-phon,[],25,No,9,25,9,9,无,3,Female,普通话，英文,无,66d0e03800acfdbc181f1450,Chrome,Mac,900,1440,4.313183333333333,
19,condition1,1,東,東,f,2000,107,西,sem-sem,[],25,No,9,25,9,9,无,3,Female,普通话，英文,无,66d0e03800acfdbc181f1450,Chrome,Mac,900,1440,4.313183333333333,
19,condition1,2,壯,另,j,1884,108,另,con,[],25,No,9,25,9,9,无,3,Female,普通话，英文,无,66d0e03800acfdbc181f1450,Chrome,Mac,900,1440,4.313183333333333,
19,condition1,1,堪,堪,f,1940,109,慎,phon-phon,[],25,No,9,25,9,9,无,3,Female,普通话，英文,无,66d0e03800acfdbc181f1450,Chrome,Mac,900,1440,4.313183333333333,
19,condition1,2,囚,犯,j,1770,110,犯,sem-sem,[],25,No,9,25,9,9,无,3,Female,普通话，英文,无,66d0e03800acfdbc181f1450,Chrome,Mac,900,1440,4.313183333333333,
19,condition1,1,真,真,f,1887,111,實,sem-sem,[],25,No,9,25,9,9,无,3,Female,普通话，英文,无,66d0e03800acfdbc181f1450,Chrome,Mac,900,1440,4.313183333333333,
19,condition1,1,個,個,f,2574,112,故,phon-phon,[],25,No,9,25,9,9,无,3,Female,普通话，英文,无,66d0e03800acfdbc181f1450,Chrome,Mac,900,1440,4.313183333333333,
19,condition1,2,板,翻,j,1679,113,翻,phon-phon,[],25,No,9,25,9,9,无,3,Female,普通话，英文,无,66d0e03800acfdbc181f1450,Chrome,Mac,900,1440,4.313183333333333,
19,condition1,1,暗,暗,f,1921,114,因,phon-phon,[],25,No,9,25,9,9,无,3,Female,普通话，英文,无,66d0e03800acfdbc181f1450,Chrome,Mac,900,1440,4.313183333333333,
19,condition1,2,克,服,j,2003,115,服,sem-sem,[],25,No,9,25,9,9,无,3,Female,普通话，英文,无,66d0e03800acfdbc181f1450,Chrome,Mac,900,1440,4.313183333333333,
19,condition1,1,戚,戚,f,2049,116,唐,con,[],25,No,9,25,9,9,无,3,Female,普通话，英文,无,66d0e03800acfdbc181f1450,Chrome,Mac,900,1440,4.313183333333333,
19,condition1,1,拯,拯,f,2207,117,救,sem-sem,[],25,No,9,25,9,9,无,3,Female,普通话，英文,无,66d0e03800acfdbc181f1450,Chrome,Mac,900,1440,4.313183333333333,
19,condition1,1,倖,倖,f,2044,118,福,phon-sem,[],25,No,9,25,9,9,无,3,Female,普通话，英文,无,66d0e03800acfdbc181f1450,Chrome,Mac,900,1440,4.313183333333333,
19,condition1,1,摺,摺,f,2072,119,席,phon-phon,[],25,No,9,25,9,9,无,3,Female,普通话，英文,无,66d0e03800acfdbc181f1450,Chrome,Mac,900,1440,4.313183333333333,
19,condition1,1,汐,汐,f,1745,120,陽,phon-sem,[],25,No,9,25,9,9,无,3,Female,普通话，英文,无,66d0e03800acfdbc181f1450,Chrome,Mac,900,1440,4.313183333333333,
19,condition1,1,夫,夫,f,1878,121,妻,sem-sem,[],25,No,9,25,9,9,无,3,Female,普通话，英文,无,66d0e03800acfdbc181f1450,Chrome,Mac,900,1440,4.313183333333333,
19,condition1,1,盪,盪,f,1838,122,棍,con,[],25,No,9,25,9,9,无,3,Female,普通话，英文,无,66d0e03800acfdbc181f1450,Chrome,Mac,900,1440,4.313183333333333,
19,condition1,2,泳,遠,j,2122,123,遠,phon-sem,[],25,No,9,25,9,9,无,3,Female,普通话，英文,无,66d0e03800acfdbc181f1450,Chrome,Mac,900,1440,4.313183333333333,
19,condition1,1,傢,傢,f,1769,124,人,phon-sem,[],25,No,9,25,9,9,无,3,Female,普通话，英文,无,66d0e03800acfdbc181f1450,Chrome,Mac,900,1440,4.313183333333333,
19,condition1,2,結,即,j,1681,125,即,phon-phon,[],25,No,9,25,9,9,无,3,Female,普通话，英文,无,66d0e03800acfdbc181f1450,Chrome,Mac,900,1440,4.313183333333333,
19,condition1,1,掘,掘,f,1748,126,區,phon-phon,[],25,No,9,25,9,9,无,3,Female,普通话，英文,无,66d0e03800acfdbc181f1450,Chrome,Mac,900,1440,4.313183333333333,
19,condition1,1,村,村,f,1784,127,即,con,[],25,No,9,25,9,9,无,3,Female,普通话，英文,无,66d0e03800acfdbc181f1450,Chrome,Mac,900,1440,4.313183333333333,
19,condition1,1,黑,黑,f,1802,128,白,sem-sem,[],25,No,9,25,9,9,无,3,Female,普通话，英文,无,66d0e03800acfdbc181f1450,Chrome,Mac,900,1440,4.313183333333333,
19,condition1,1,諷,諷,f,1813,129,刺,sem-sem,[],25,No,9,25,9,9,无,3,Female,普通话，英文,无,66d0e03800acfdbc181f1450,Chrome,Mac,900,1440,4.313183333333333,
19,condition1,2,宜,其,j,1709,130,其,con,[],25,No,9,25,9,9,无,3,Female,普通话，英文,无,66d0e03800acfdbc181f1450,Chrome,Mac,900,1440,4.313183333333333,
19,condition1,2,燈,山,j,1771,131,山,phon-sem,[],25,No,9,25,9,9,无,3,Female,普通话，英文,无,66d0e03800acfdbc181f1450,Chrome,Mac,900,1440,4.313183333333333,
19,condition1,2,烤,試,j,1602,132,試,phon-sem,[],25,No,9,25,9,9,无,3,Female,普通话，英文,无,66d0e03800acfdbc181f1450,Chrome,Mac,900,1440,4.313183333333333,
19,condition1,1,楓,楓,f,1662,133,雨,phon-sem,[],25,No,9,25,9,9,无,3,Female,普通话，英文,无,66d0e03800acfdbc181f1450,Chrome,Mac,900,1440,4.313183333333333,
19,condition1,2,畢,業,j,1698,134,業,sem-sem,[],25,No,9,25,9,9,无,3,Female,普通话，英文,无,66d0e03800acfdbc181f1450,Chrome,Mac,900,1440,4.313183333333333,
19,condition1,1,帳,帳,f,1673,135,煮,con,[],25,No,9,25,9,9,无,3,Female,普通话，英文,无,66d0e03800acfdbc181f1450,Chrome,Mac,900,1440,4.313183333333333,
19,condition1,2,危,險,j,1628,136,險,sem-sem,[],25,No,9,25,9,9,无,3,Female,普通话，英文,无,66d0e03800acfdbc181f1450,Chrome,Mac,900,1440,4.313183333333333,
19,condition1,1,詞,詞,f,1957,137,絲,phon-phon,[],25,No,9,25,9,9,无,3,Female,普通话，英文,无,66d0e03800acfdbc181f1450,Chrome,Mac,900,1440,4.313183333333333,
19,condition1,2,審,判,j,1879,138,判,sem-sem,[],25,No,9,25,9,9,无,3,Female,普通话，英文,无,66d0e03800acfdbc181f1450,Chrome,Mac,900,1440,4.313183333333333,
19,condition1,2,嬰,兒,j,1656,139,兒,sem-sem,[],25,No,9,25,9,9,无,3,Female,普通话，英文,无,66d0e03800acfdbc181f1450,Chrome,Mac,900,1440,4.313183333333333,
19,condition1,1,羨,羨,f,1823,140,慕,sem-sem,[],25,No,9,25,9,9,无,3,Female,普通话，英文,无,66d0e03800acfdbc181f1450,Chrome,Mac,900,1440,4.313183333333333,
19,condition1,2,形,再,j,1598,141,再,con,[],25,No,9,25,9,9,无,3,Female,普通话，英文,无,66d0e03800acfdbc181f1450,Chrome,Mac,900,1440,4.313183333333333,
19,condition1,1,佑,佑,f,1831,142,左,phon-sem,[],25,No,9,25,9,9,无,3,Female,普通话，英文,无,66d0e03800acfdbc181f1450,Chrome,Mac,900,1440,4.313183333333333,
19,condition1,2,臭,堂,j,1692,143,堂,con,[],25,No,9,25,9,9,无,3,Female,普通话，英文,无,66d0e03800acfdbc181f1450,Chrome,Mac,900,1440,4.313183333333333,
19,condition1,1,肥,肥,f,1883,144,胖,sem-sem,[],25,No,9,25,9,9,无,3,Female,普通话，英文,无,66d0e03800acfdbc181f1450,Chrome,Mac,900,1440,4.313183333333333,
19,condition1,2,懈,姐,j,1715,145,姐,phon-phon,[],25,No,9,25,9,9,无,3,Female,普通话，英文,无,66d0e03800acfdbc181f1450,Chrome,Mac,900,1440,4.313183333333333,
19,condition1,2,棋,實,j,1667,146,實,phon-sem,[],25,No,9,25,9,9,无,3,Female,普通话，英文,无,66d0e03800acfdbc181f1450,Chrome,Mac,900,1440,4.313183333333333,
19,condition1,1,糖,糖,f,1782,147,鄰,con,[],25,No,9,25,9,9,无,3,Female,普通话，英文,无,66d0e03800acfdbc181f1450,Chrome,Mac,900,1440,4.313183333333333,
19,condition1,1,手,手,f,1846,148,腳,sem-sem,[],25,No,9,25,9,9,无,3,Female,普通话，英文,无,66d0e03800acfdbc181f1450,Chrome,Mac,900,1440,4.313183333333333,
19,condition1,1,陀,陀,f,2117,149,他,phon-phon,[],25,No,9,25,9,9,无,3,Female,普通话，英文,无,66d0e03800acfdbc181f1450,Chrome,Mac,900,1440,4.313183333333333,
19,condition1,1,轄,轄,f,1796,150,嗨,phon-phon,[],25,No,9,25,9,9,无,3,Female,普通话，英文,无,66d0e03800acfdbc181f1450,Chrome,Mac,900,1440,4.313183333333333,
19,condition1,2,森,林,j,1859,152,林,sem-sem,[],25,No,9,25,9,9,无,3,Female,普通话，英文,无,66d0e03800acfdbc181f1450,Chrome,Mac,900,1440,4.313183333333333,
19,condition1,1,簡,簡,f,1730,153,單,sem-sem,[],25,No,9,25,9,9,无,3,Female,普通话，英文,无,66d0e03800acfdbc181f1450,Chrome,Mac,900,1440,4.313183333333333,
19,condition1,1,蔬,蔬,f,1682,154,菜,sem-sem,[],25,No,9,25,9,9,无,3,Female,普通话，英文,无,66d0e03800acfdbc181f1450,Chrome,Mac,900,1440,4.313183333333333,
19,condition1,2,叫,六,j,1627,155,六,con,[],25,No,9,25,9,9,无,3,Female,普通话，英文,无,66d0e03800acfdbc181f1450,Chrome,Mac,900,1440,4.313183333333333,
19,condition1,1,餵,餵,f,1902,156,懼,phon-sem,[],25,No,9,25,9,9,无,3,Female,普通话，英文,无,66d0e03800acfdbc181f1450,Chrome,Mac,900,1440,4.313183333333333,
19,condition1,1,銘,銘,f,1686,157,字,phon-sem,[],25,No,9,25,9,9,无,3,Female,普通话，英文,无,66d0e03800acfdbc181f1450,Chrome,Mac,900,1440,4.313183333333333,
19,condition1,2,棚,友,j,1632,158,友,phon-sem,[],25,No,9,25,9,9,无,3,Female,普通话，英文,无,66d0e03800acfdbc181f1450,Chrome,Mac,900,1440,4.313183333333333,
19,condition1,1,黎,黎,f,3170,159,彬,con,[],25,No,9,25,9,9,无,3,Female,普通话，英文,无,66d0e03800acfdbc181f1450,Chrome,Mac,900,1440,4.313183333333333,
19,condition1,2,孩,侵,j,1696,160,侵,con,[],25,No,9,25,9,9,无,3,Female,普通话，英文,无,66d0e03800acfdbc181f1450,Chrome,Mac,900,1440,4.313183333333333,
19,condition1,1,擾,擾,f,1729,161,悠,phon-phon,[],25,No,9,25,9,9,无,3,Female,普通话，英文,无,66d0e03800acfdbc181f1450,Chrome,Mac,900,1440,4.313183333333333,
19,condition1,1,倪,倪,f,1812,162,而,phon-phon,[],25,No,9,25,9,9,无,3,Female,普通话，英文,无,66d0e03800acfdbc181f1450,Chrome,Mac,900,1440,4.313183333333333,
19,condition1,1,秩,秩,f,1801,163,肯,con,[],25,No,9,25,9,9,无,3,Female,普通话，英文,无,66d0e03800acfdbc181f1450,Chrome,Mac,900,1440,4.313183333333333,
19,condition1,1,梓,梓,f,1781,164,某,con,[],25,No,9,25,9,9,无,3,Female,普通话，英文,无,66d0e03800acfdbc181f1450,Chrome,Mac,900,1440,4.313183333333333,
19,condition1,1,普,普,f,1683,165,通,sem-sem,[],25,No,9,25,9,9,无,3,Female,普通话，英文,无,66d0e03800acfdbc181f1450,Chrome,Mac,900,1440,4.313183333333333,
19,condition1,2,很,車,j,1613,166,車,con,[],25,No,9,25,9,9,无,3,Female,普通话，英文,无,66d0e03800acfdbc181f1450,Chrome,Mac,900,1440,4.313183333333333,
19,condition1,2,邏,輯,j,1659,167,輯,sem-sem,[],25,No,9,25,9,9,无,3,Female,普通话，英文,无,66d0e03800acfdbc181f1450,Chrome,Mac,900,1440,4.313183333333333,
19,condition1,2,遵,重,j,1598,168,重,phon-sem,[],25,No,9,25,9,9,无,3,Female,普通话，英文,无,66d0e03800acfdbc181f1450,Chrome,Mac,900,1440,4.313183333333333,
19,condition1,2,氾,濫,j,1667,169,濫,sem-sem,[],25,No,9,25,9,9,无,3,Female,普通话，英文,无,66d0e03800acfdbc181f1450,Chrome,Mac,900,1440,4.313183333333333,
19,condition1,2,讀,邁,j,1725,170,邁,phon-phon,[],25,No,9,25,9,9,无,3,Female,普通话，英文,无,66d0e03800acfdbc181f1450,Chrome,Mac,900,1440,4.313183333333333,
19,condition1,2,晚,勉,j,1804,171,勉,phon-phon,[],25,No,9,25,9,9,无,3,Female,普通话，英文,无,66d0e03800acfdbc181f1450,Chrome,Mac,900,1440,4.313183333333333,
19,condition1,2,藥,邀,j,1611,172,邀,con,[],25,No,9,25,9,9,无,3,Female,普通话，英文,无,66d0e03800acfdbc181f1450,Chrome,Mac,900,1440,4.313183333333333,
19,condition1,2,据,住,j,1606,173,住,phon-sem,[],25,No,9,25,9,9,无,3,Female,普通话，英文,无,66d0e03800acfdbc181f1450,Chrome,Mac,900,1440,4.313183333333333,
19,condition1,2,眠,務,j,1622,174,務,con,[],25,No,9,25,9,9,无,3,Female,普通话，英文,无,66d0e03800acfdbc181f1450,Chrome,Mac,900,1440,4.313183333333333,
19,condition1,2,綜,教,j,1625,175,教,phon-sem,[],25,No,9,25,9,9,无,3,Female,普通话，英文,无,66d0e03800acfdbc181f1450,Chrome,Mac,900,1440,4.313183333333333,
19,condition1,2,程,現,j,1591,176,現,phon-sem,[],25,No,9,25,9,9,无,3,Female,普通话，英文,无,66d0e03800acfdbc181f1450,Chrome,Mac,900,1440,4.313183333333333,
19,condition1,2,划,船,j,1587,177,船,sem-sem,[],25,No,9,25,9,9,无,3,Female,普通话，英文,无,66d0e03800acfdbc181f1450,Chrome,Mac,900,1440,4.313183333333333,
19,condition1,1,溶,溶,f,1627,178,易,phon-sem,[],25,No,9,25,9,9,无,3,Female,普通话，英文,无,66d0e03800acfdbc181f1450,Chrome,Mac,900,1440,4.313183333333333,
19,condition1,2,謂,腸,j,1577,179,腸,phon-sem,[],25,No,9,25,9,9,无,3,Female,普通话，英文,无,66d0e03800acfdbc181f1450,Chrome,Mac,900,1440,4.313183333333333,
19,condition1,2,迅,速,j,1793,180,速,sem-sem,[],25,No,9,25,9,9,无,3,Female,普通话，英文,无,66d0e03800acfdbc181f1450,Chrome,Mac,900,1440,4.313183333333333,
19,condition1,2,跟,董,j,1761,181,董,con,[],25,No,9,25,9,9,无,3,Female,普通话，英文,无,66d0e03800acfdbc181f1450,Chrome,Mac,900,1440,4.313183333333333,
19,condition1,2,額,賽,j,1669,182,賽,con,[],25,No,9,25,9,9,无,3,Female,普通话，英文,无,66d0e03800acfdbc181f1450,Chrome,Mac,900,1440,4.313183333333333,
19,condition1,2,紛,析,j,1615,183,析,phon-sem,[],25,No,9,25,9,9,无,3,Female,普通话，英文,无,66d0e03800acfdbc181f1450,Chrome,Mac,900,1440,4.313183333333333,
19,condition1,2,那,飛,j,1585,184,飛,con,[],25,No,9,25,9,9,无,3,Female,普通话，英文,无,66d0e03800acfdbc181f1450,Chrome,Mac,900,1440,4.313183333333333,
19,condition1,2,漆,端,j,1622,185,端,con,[],25,No,9,25,9,9,无,3,Female,普通话，英文,无,66d0e03800acfdbc181f1450,Chrome,Mac,900,1440,4.313183333333333,
19,condition1,2,踝,裹,j,1597,186,裹,phon-phon,[],25,No,9,25,9,9,无,3,Female,普通话，英文,无,66d0e03800acfdbc181f1450,Chrome,Mac,900,1440,4.313183333333333,
19,condition1,2,煉,葉,j,1622,187,葉,con,[],25,No,9,25,9,9,无,3,Female,普通话，英文,无,66d0e03800acfdbc181f1450,Chrome,Mac,900,1440,4.313183333333333,
19,condition1,1,泥,泥,f,1705,188,姑,phon-sem,[],25,No,9,25,9,9,无,3,Female,普通话，英文,无,66d0e03800acfdbc181f1450,Chrome,Mac,900,1440,4.313183333333333,
19,condition1,1,健,健,f,1870,189,立,phon-sem,[],25,No,9,25,9,9,无,3,Female,普通话，英文,无,66d0e03800acfdbc181f1450,Chrome,Mac,900,1440,4.313183333333333,
19,condition1,1,儘,儘,f,1817,190,量,phon-sem,[],25,No,9,25,9,9,无,3,Female,普通话，英文,无,66d0e03800acfdbc181f1450,Chrome,Mac,900,1440,4.313183333333333,
33,condition1,1,壢,壢,f,2782,8,史,phon-sem,[],32,No,19,32,18,18,,3,Female,普通话，粤语，英语,没有,6595d5e0e40533319c0188c2,Chrome,Mac,900,1440,7.1082,
33,condition1,2,雖,營,j,2067,9,營,con,[],32,No,19,32,18,18,,3,Female,普通话，粤语，英语,没有,6595d5e0e40533319c0188c2,Chrome,Mac,900,1440,7.1082,
33,condition1,1,線,線,f,2189,10,權,phon-phon,[],32,No,19,32,18,18,,3,Female,普通话，粤语，英语,没有,6595d5e0e40533319c0188c2,Chrome,Mac,900,1440,7.1082,
33,condition1,2,氾,濫,j,2777,11,濫,sem-sem,[],32,No,19,32,18,18,,3,Female,普通话，粤语，英语,没有,6595d5e0e40533319c0188c2,Chrome,Mac,900,1440,7.1082,
33,condition1,1,軸,軸,f,2189,12,階,con,[],32,No,19,32,18,18,,3,Female,普通话，粤语，英语,没有,6595d5e0e40533319c0188c2,Chrome,Mac,900,1440,7.1082,
33,condition1,2,蔬,菜,j,2260,13,菜,sem-sem,[],32,No,19,32,18,18,,3,Female,普通话，粤语，英语,没有,6595d5e0e40533319c0188c2,Chrome,Mac,900,1440,7.1082,
33,condition1,1,締,締,f,2222,14,國,phon-sem,[],32,No,19,32,18,18,,3,Female,普通话，粤语，英语,没有,6595d5e0e40533319c0188c2,Chrome,Mac,900,1440,7.1082,
33,condition1,2,億,義,j,2363,15,義,phon-sem,[],32,No,19,32,18,18,,3,Female,普通话，粤语，英语,没有,6595d5e0e40533319c0188c2,Chrome,Mac,900,1440,7.1082,
33,condition1,1,東,東,f,2162,16,西,sem-sem,[],32,No,19,32,18,18,,3,Female,普通话，粤语，英语,没有,6595d5e0e40533319c0188c2,Chrome,Mac,900,1440,7.1082,
33,condition1,2,肥,胖,j,2321,17,胖,sem-sem,[],32,No,19,32,18,18,,3,Female,普通话，粤语，英语,没有,6595d5e0e40533319c0188c2,Chrome,Mac,900,1440,7.1082,
33,condition1,1,健,健,f,2109,18,立,phon-sem,[],32,No,19,32,18,18,,3,Female,普通话，粤语，英语,没有,6595d5e0e40533319c0188c2,Chrome,Mac,900,1440,7.1082,
33,condition1,1,諒,諒,f,2602,19,經,phon-phon,[],32,No,19,32,18,18,,3,Female,普通话，粤语，英语,没有,6595d5e0e40533319c0188c2,Chrome,Mac,900,1440,7.1082,
33,condition1,1,棚,棚,f,3032,20,友,phon-sem,[],32,No,19,32,18,18,,3,Female,普通话，粤语，英语,没有,6595d5e0e40533319c0188c2,Chrome,Mac,900,1440,7.1082,
33,condition1,2,城,功,j,2302,21,功,phon-sem,[],32,No,19,32,18,18,,3,Female,普通话，粤语，英语,没有,6595d5e0e40533319c0188c2,Chrome,Mac,900,1440,7.1082,
33,condition1,1,槌,槌,f,2451,22,錐,phon-phon,[],32,No,19,32,18,18,,3,Female,普通话，粤语，英语,没有,6595d5e0e40533319c0188c2,Chrome,Mac,900,1440,7.1082,
33,condition1,2,垃,圾,j,2589,23,圾,sem-sem,[],32,No,19,32,18,18,,3,Female,普通话，粤语，英语,没有,6595d5e0e40533319c0188c2,Chrome,Mac,900,1440,7.1082,
33,condition1,2,螺,類,j,2315,24,類,phon-phon,[],32,No,19,32,18,18,,3,Female,普通话，粤语，英语,没有,6595d5e0e40533319c0188c2,Chrome,Mac,900,1440,7.1082,
33,condition1,1,緊,緊,f,2331,25,張,sem-sem,[],32,No,19,32,18,18,,3,Female,普通话，粤语，英语,没有,6595d5e0e40533319c0188c2,Chrome,Mac,900,1440,7.1082,
33,condition1,2,結,即,j,2474,26,即,phon-phon,[],32,No,19,32,18,18,,3,Female,普通话，粤语，英语,没有,6595d5e0e40533319c0188c2,Chrome,Mac,900,1440,7.1082,
33,condition1,1,梓,梓,f,2336,27,某,con,[],32,No,19,32,18,18,,3,Female,普通话，粤语，英语,没有,6595d5e0e40533319c0188c2,Chrome,Mac,900,1440,7.1082,
33,condition1,2,普,通,j,3119,28,通,sem-sem,[],32,No,19,32,18,18,,3,Female,普通话，粤语，英语,没有,6595d5e0e40533319c0188c2,Chrome,Mac,900,1440,7.1082,
33,condition1,1,擾,擾,f,2235,29,悠,phon-phon,[],32,No,19,32,18,18,,3,Female,普通话，粤语，英语,没有,6595d5e0e40533319c0188c2,Chrome,Mac,900,1440,7.1082,
33,condition1,1,划,划,f,2104,30,船,sem-sem,[],32,No,19,32,18,18,,3,Female,普通话，粤语，英语,没有,6595d5e0e40533319c0188c2,Chrome,Mac,900,1440,7.1082,
33,condition1,2,暗,因,j,2876,31,因,phon-phon,[],32,No,19,32,18,18,,3,Female,普通话，粤语，英语,没有,6595d5e0e40533319c0188c2,Chrome,Mac,900,1440,7.1082,
33,condition1,2,源,因,j,2432,32,因,phon-sem,[],32,No,19,32,18,18,,3,Female,普通话，粤语，英语,没有,6595d5e0e40533319c0188c2,Chrome,Mac,900,1440,7.1082,
33,condition1,1,批,批,f,2679,33,筆,phon-phon,[],32,No,19,32,18,18,,3,Female,普通话，粤语，英语,没有,6595d5e0e40533319c0188c2,Chrome,Mac,900,1440,7.1082,
33,condition1,2,樣,輕,j,2388,34,輕,con,[],32,No,19,32,18,18,,3,Female,普通话，粤语，英语,没有,6595d5e0e40533319c0188c2,Chrome,Mac,900,1440,7.1082,
33,condition1,2,紐,醜,j,2213,35,醜,phon-phon,[],32,No,19,32,18,18,,3,Female,普通话，粤语，英语,没有,6595d5e0e40533319c0188c2,Chrome,Mac,900,1440,7.1082,
33,condition1,1,踝,踝,f,2303,36,裹,phon-phon,[],32,No,19,32,18,18,,3,Female,普通话，粤语，英语,没有,6595d5e0e40533319c0188c2,Chrome,Mac,900,1440,7.1082,
33,condition1,2,叫,六,j,3636,37,六,con,[],32,No,19,32,18,18,,3,Female,普通话，粤语，英语,没有,6595d5e0e40533319c0188c2,Chrome,Mac,900,1440,7.1082,
33,condition1,1,盪,盪,f,2704,38,棍,con,[],32,No,19,32,18,18,,3,Female,普通话，粤语，英语,没有,6595d5e0e40533319c0188c2,Chrome,Mac,900,1440,7.1082,
33,condition1,1,轄,轄,f,2725,39,嗨,phon-phon,[],32,No,19,32,18,18,,3,Female,普通话，粤语，英语,没有,6595d5e0e40533319c0188c2,Chrome,Mac,900,1440,7.1082,
33,condition1,1,稻,稻,f,2919,40,米,sem-sem,[],32,No,19,32,18,18,,3,Female,普通话，粤语，英语,没有,6595d5e0e40533319c0188c2,Chrome,Mac,900,1440,7.1082,
33,condition1,1,帳,帳,f,2349,41,煮,con,[],32,No,19,32,18,18,,3,Female,普通话，粤语，英语,没有,6595d5e0e40533319c0188c2,Chrome,Mac,900,1440,7.1082,
33,condition1,2,佑,左,j,4855,42,左,phon-sem,[],32,No,19,32,18,18,,3,Female,普通话，粤语，英语,没有,6595d5e0e40533319c0188c2,Chrome,Mac,900,1440,7.1082,
33,condition1,1,諷,諷,f,2315,43,刺,sem-sem,[],32,No,19,32,18,18,,3,Female,普通话，粤语，英语,没有,6595d5e0e40533319c0188c2,Chrome,Mac,900,1440,7.1082,
33,condition1,2,惶,帝,j,4610,44,帝,phon-sem,[],32,No,19,32,18,18,,3,Female,普通话，粤语，英语,没有,6595d5e0e40533319c0188c2,Chrome,Mac,900,1440,7.1082,
33,condition1,1,湧,湧,f,2318,45,敢,phon-sem,[],32,No,19,32,18,18,,3,Female,普通话，粤语，英语,没有,6595d5e0e40533319c0188c2,Chrome,Mac,900,1440,7.1082,
33,condition1,2,儒,須,j,2476,46,須,phon-phon,[],32,No,19,32,18,18,,3,Female,普通话，粤语，英语,没有,6595d5e0e40533319c0188c2,Chrome,Mac,900,1440,7.1082,
33,condition1,2,根,候,j,2805,47,候,con,[],32,No,19,32,18,18,,3,Female,普通话，粤语，英语,没有,6595d5e0e40533319c0188c2,Chrome,Mac,900,1440,7.1082,
33,condition1,1,村,村,f,2526,48,即,con,[],32,No,19,32,18,18,,3,Female,普通话，粤语，英语,没有,6595d5e0e40533319c0188c2,Chrome,Mac,900,1440,7.1082,
33,condition1,1,冰,冰,f,2650,49,冷,sem-sem,[],32,No,19,32,18,18,,3,Female,普通话，粤语，英语,没有,6595d5e0e40533319c0188c2,Chrome,Mac,900,1440,7.1082,
33,condition1,2,繪,港,j,3381,50,港,con,[],32,No,19,32,18,18,,3,Female,普通话，粤语，英语,没有,6595d5e0e40533319c0188c2,Chrome,Mac,900,1440,7.1082,
33,condition1,2,据,住,j,2373,52,住,phon-sem,[],32,No,19,32,18,18,,3,Female,普通话，粤语，英语,没有,6595d5e0e40533319c0188c2,Chrome,Mac,900,1440,7.1082,
33,condition1,2,糖,鄰,j,2206,53,鄰,con,[],32,No,19,32,18,18,,3,Female,普通话，粤语，英语,没有,6595d5e0e40533319c0188c2,Chrome,Mac,900,1440,7.1082,
33,condition1,1,剪,剪,f,2013,54,刀,sem-sem,[],32,No,19,32,18,18,,3,Female,普通话，粤语，英语,没有,6595d5e0e40533319c0188c2,Chrome,Mac,900,1440,7.1082,
33,condition1,2,銘,字,j,2203,55,字,phon-sem,[],32,No,19,32,18,18,,3,Female,普通话，粤语，英语,没有,6595d5e0e40533319c0188c2,Chrome,Mac,900,1440,7.1082,
33,condition1,1,擁,擁,f,2242,56,賞,con,[],32,No,19,32,18,18,,3,Female,普通话，粤语，英语,没有,6595d5e0e40533319c0188c2,Chrome,Mac,900,1440,7.1082,
33,condition1,1,孩,孩,f,2203,57,侵,con,[],32,No,19,32,18,18,,3,Female,普通话，粤语，英语,没有,6595d5e0e40533319c0188c2,Chrome,Mac,900,1440,7.1082,
33,condition1,2,那,飛,j,2292,58,飛,con,[],32,No,19,32,18,18,,3,Female,普通话，粤语，英语,没有,6595d5e0e40533319c0188c2,Chrome,Mac,900,1440,7.1082,
33,condition1,1,針,針,f,2180,59,線,sem-sem,[],32,No,19,32,18,18,,3,Female,普通话，粤语，英语,没有,6595d5e0e40533319c0188c2,Chrome,Mac,900,1440,7.1082,
33,condition1,2,企,天,j,2219,60,天,con,[],32,No,19,32,18,18,,3,Female,普通话，粤语，英语,没有,6595d5e0e40533319c0188c2,Chrome,Mac,900,1440,7.1082,
33,condition1,1,饑,饑,f,2364,61,餓,sem-sem,[],32,No,19,32,18,18,,3,Female,普通话，粤语，英语,没有,6595d5e0e40533319c0188c2,Chrome,Mac,900,1440,7.1082,
33,condition1,1,嬰,嬰,f,2212,62,兒,sem-sem,[],32,No,19,32,18,18,,3,Female,普通话，粤语，英语,没有,6595d5e0e40533319c0188c2,Chrome,Mac,900,1440,7.1082,
33,condition1,2,紛,析,j,2281,63,析,phon-sem,[],32,No,19,32,18,18,,3,Female,普通话，粤语，英语,没有,6595d5e0e40533319c0188c2,Chrome,Mac,900,1440,7.1082,
33,condition1,2,儘,量,j,3782,64,量,phon-sem,[],32,No,19,32,18,18,,3,Female,普通话，粤语，英语,没有,6595d5e0e40533319c0188c2,Chrome,Mac,900,1440,7.1082,
33,condition1,1,泥,泥,f,2082,65,姑,phon-sem,[],32,No,19,32,18,18,,3,Female,普通话，粤语，英语,没有,6595d5e0e40533319c0188c2,Chrome,Mac,900,1440,7.1082,
33,condition1,2,厭,惡,j,2288,66,惡,sem-sem,[],32,No,19,32,18,18,,3,Female,普通话，粤语，英语,没有,6595d5e0e40533319c0188c2,Chrome,Mac,900,1440,7.1082,
33,condition1,1,仇,仇,f,2302,67,恨,sem-sem,[],32,No,19,32,18,18,,3,Female,普通话，粤语，英语,没有,6595d5e0e40533319c0188c2,Chrome,Mac,900,1440,7.1082,
33,condition1,2,稀,望,j,2349,68,望,phon-sem,[],32,No,19,32,18,18,,3,Female,普通话，粤语，英语,没有,6595d5e0e40533319c0188c2,Chrome,Mac,900,1440,7.1082,
33,condition1,2,擅,廉,j,3057,69,廉,con,[],32,No,19,32,18,18,,3,Female,普通话，粤语，英语,没有,6595d5e0e40533319c0188c2,Chrome,Mac,900,1440,7.1082,
33,condition1,1,摺,摺,f,2235,70,席,phon-phon,[],32,No,19,32,18,18,,3,Female,普通话，粤语，英语,没有,6595d5e0e40533319c0188c2,Chrome,Mac,900,1440,7.1082,
33,condition1,2,革,命,j,2502,71,命,sem-sem,[],32,No,19,32,18,18,,3,Female,普通话，粤语，英语,没有,6595d5e0e40533319c0188c2,Chrome,Mac,900,1440,7.1082,
33,condition1,1,詞,詞,f,2348,72,絲,phon-phon,[],32,No,19,32,18,18,,3,Female,普通话，粤语，英语,没有,6595d5e0e40533319c0188c2,Chrome,Mac,900,1440,7.1082,
33,condition1,2,漆,端,j,2626,73,端,con,[],32,No,19,32,18,18,,3,Female,普通话，粤语，英语,没有,6595d5e0e40533319c0188c2,Chrome,Mac,900,1440,7.1082,
33,condition1,1,松,松,f,2352,74,工,phon-phon,[],32,No,19,32,18,18,,3,Female,普通话，粤语，英语,没有,6595d5e0e40533319c0188c2,Chrome,Mac,900,1440,7.1082,
33,condition1,2,騙,貶,j,2403,75,貶,phon-phon,[],32,No,19,32,18,18,,3,Female,普通话，粤语，英语,没有,6595d5e0e40533319c0188c2,Chrome,Mac,900,1440,7.1082,
33,condition1,2,漢,隔,j,2982,76,隔,con,[],32,No,19,32,18,18,,3,Female,普通话，粤语，英语,没有,6595d5e0e40533319c0188c2,Chrome,Mac,900,1440,7.1082,
33,condition1,2,形,再,j,2489,77,再,con,[],32,No,19,32,18,18,,3,Female,普通话，粤语，英语,没有,6595d5e0e40533319c0188c2,Chrome,Mac,900,1440,7.1082,
33,condition1,2,危,險,j,2356,78,險,sem-sem,[],32,No,19,32,18,18,,3,Female,普通话，粤语，英语,没有,6595d5e0e40533319c0188c2,Chrome,Mac,900,1440,7.1082,
33,condition1,1,轎,轎,f,2254,79,瞧,phon-phon,[],32,No,19,32,18,18,,3,Female,普通话，粤语，英语,没有,6595d5e0e40533319c0188c2,Chrome,Mac,900,1440,7.1082,
33,condition1,1,胸,胸,f,3347,80,奴,phon-sem,[],32,No,19,32,18,18,,3,Female,普通话，粤语，英语,没有,6595d5e0e40533319c0188c2,Chrome,Mac,900,1440,7.1082,
33,condition1,1,峽,峽,f,3471,81,述,con,[],32,No,19,32,18,18,,3,Female,普通话，粤语，英语,没有,6595d5e0e40533319c0188c2,Chrome,Mac,900,1440,7.1082,
33,condition1,1,真,真,f,2495,82,實,sem-sem,[],32,No,19,32,18,18,,3,Female,普通话，粤语，英语,没有,6595d5e0e40533319c0188c2,Chrome,Mac,900,1440,7.1082,
33,condition1,1,濃,濃,f,2422,83,田,phon-sem,[],32,No,19,32,18,18,,3,Female,普通话，粤语，英语,没有,6595d5e0e40533319c0188c2,Chrome,Mac,900,1440,7.1082,
33,condition1,2,堪,慎,j,2159,84,慎,phon-phon,[],32,No,19,32,18,18,,3,Female,普通话，粤语，英语,没有,6595d5e0e40533319c0188c2,Chrome,Mac,900,1440,7.1082,
33,condition1,1,準,準,f,2381,85,腦,con,[],32,No,19,32,18,18,,3,Female,普通话，粤语，英语,没有,6595d5e0e40533319c0188c2,Chrome,Mac,900,1440,7.1082,
33,condition1,1,簡,簡,f,2853,86,單,sem-sem,[],32,No,19,32,18,18,,3,Female,普通话，粤语，英语,没有,6595d5e0e40533319c0188c2,Chrome,Mac,900,1440,7.1082,
33,condition1,1,附,附,f,3116,87,出,phon-sem,[],32,No,19,32,18,18,,3,Female,普通话，粤语，英语,没有,6595d5e0e40533319c0188c2,Chrome,Mac,900,1440,7.1082,
33,condition1,2,審,判,j,2266,88,判,sem-sem,[],32,No,19,32,18,18,,3,Female,普通话，粤语，英语,没有,6595d5e0e40533319c0188c2,Chrome,Mac,900,1440,7.1082,
33,condition1,1,遲,遲,f,4852,89,夕,phon-phon,[],32,No,19,32,18,18,,3,Female,普通话，粤语，英语,没有,6595d5e0e40533319c0188c2,Chrome,Mac,900,1440,7.1082,
33,condition1,2,楓,雨,j,2226,90,雨,phon-sem,[],32,No,19,32,18,18,,3,Female,普通话，粤语，英语,没有,6595d5e0e40533319c0188c2,Chrome,Mac,900,1440,7.1082,
33,condition1,2,克,服,j,2169,91,服,sem-sem,[],32,No,19,32,18,18,,3,Female,普通话，粤语，英语,没有,6595d5e0e40533319c0188c2,Chrome,Mac,900,1440,7.1082,
33,condition1,1,壯,壯,f,2238,92,另,con,[],32,No,19,32,18,18,,3,Female,普通话，粤语，英语,没有,6595d5e0e40533319c0188c2,Chrome,Mac,900,1440,7.1082,
33,condition1,1,梯,梯,f,2593,93,帝,phon-phon,[],32,No,19,32,18,18,,3,Female,普通话，粤语，英语,没有,6595d5e0e40533319c0188c2,Chrome,Mac,900,1440,7.1082,
33,condition1,1,囚,囚,f,2793,94,犯,sem-sem,[],32,No,19,32,18,18,,3,Female,普通话，粤语，英语,没有,6595d5e0e40533319c0188c2,Chrome,Mac,900,1440,7.1082,
33,condition1,1,司,司,f,2483,95,進,con,[],32,No,19,32,18,18,,3,Female,普通话，粤语，英语,没有,6595d5e0e40533319c0188c2,Chrome,Mac,900,1440,7.1082,
33,condition1,1,輸,輸,f,2434,96,贏,sem-sem,[],32,No,19,32,18,18,,3,Female,普通话，粤语，英语,没有,6595d5e0e40533319c0188c2,Chrome,Mac,900,1440,7.1082,
33,condition1,1,喧,喧,f,2299,97,佈,phon-sem,[],32,No,19,32,18,18,,3,Female,普通话，粤语，英语,没有,6595d5e0e40533319c0188c2,Chrome,Mac,900,1440,7.1082,
33,condition1,1,邏,邏,f,2291,98,輯,sem-sem,[],32,No,19,32,18,18,,3,Female,普通话，粤语，英语,没有,6595d5e0e40533319c0188c2,Chrome,Mac,900,1440,7.1082,
33,condition1,2,板,翻,j,3428,99,翻,phon-phon,[],32,No,19,32,18,18,,3,Female,普通话，粤语，英语,没有,6595d5e0e40533319c0188c2,Chrome,Mac,900,1440,7.1082,
33,condition1,1,森,森,f,2233,100,林,sem-sem,[],32,No,19,32,18,18,,3,Female,普通话，粤语，英语,没有,6595d5e0e40533319c0188c2,Chrome,Mac,900,1440,7.1082,
33,condition1,1,汐,汐,f,2543,102,陽,phon-sem,[],32,No,19,32,18,18,,3,Female,普通话，粤语，英语,没有,6595d5e0e40533319c0188c2,Chrome,Mac,900,1440,7.1082,
33,condition1,2,炸,查,j,2118,103,查,con,[],32,No,19,32,18,18,,3,Female,普通话，粤语，英语,没有,6595d5e0e40533319c0188c2,Chrome,Mac,900,1440,7.1082,
33,condition1,1,渡,渡,f,1956,104,量,phon-sem,[],32,No,19,32,18,18,,3,Female,普通话，粤语，英语,没有,6595d5e0e40533319c0188c2,Chrome,Mac,900,1440,7.1082,
33,condition1,2,臭,堂,j,2050,105,堂,con,[],32,No,19,32,18,18,,3,Female,普通话，粤语，英语,没有,6595d5e0e40533319c0188c2,Chrome,Mac,900,1440,7.1082,
33,condition1,2,縮,素,j,2187,106,素,phon-phon,[],32,No,19,32,18,18,,3,Female,普通话，粤语，英语,没有,6595d5e0e40533319c0188c2,Chrome,Mac,900,1440,7.1082,
33,condition1,2,綜,教,j,2173,107,教,phon-sem,[],32,No,19,32,18,18,,3,Female,普通话，粤语，英语,没有,6595d5e0e40533319c0188c2,Chrome,Mac,900,1440,7.1082,
33,condition1,2,戚,唐,j,2194,108,唐,con,[],32,No,19,32,18,18,,3,Female,普通话，粤语，英语,没有,6595d5e0e40533319c0188c2,Chrome,Mac,900,1440,7.1082,
33,condition1,2,泳,遠,j,2280,109,遠,phon-sem,[],32,No,19,32,18,18,,3,Female,普通话，粤语，英语,没有,6595d5e0e40533319c0188c2,Chrome,Mac,900,1440,7.1082,
33,condition1,1,銀,銀,f,2128,110,蓋,con,[],32,No,19,32,18,18,,3,Female,普通话，粤语，英语,没有,6595d5e0e40533319c0188c2,Chrome,Mac,900,1440,7.1082,
33,condition1,1,勵,勵,f,2176,111,害,phon-sem,[],32,No,19,32,18,18,,3,Female,普通话，粤语，英语,没有,6595d5e0e40533319c0188c2,Chrome,Mac,900,1440,7.1082,
33,condition1,1,藥,藥,f,2257,112,邀,con,[],32,No,19,32,18,18,,3,Female,普通话，粤语，英语,没有,6595d5e0e40533319c0188c2,Chrome,Mac,900,1440,7.1082,
33,condition1,1,搔,搔,f,2245,113,癢,sem-sem,[],32,No,19,32,18,18,,3,Female,普通话，粤语，英语,没有,6595d5e0e40533319c0188c2,Chrome,Mac,900,1440,7.1082,
33,condition1,2,脆,微,j,2428,114,微,phon-phon,[],32,No,19,32,18,18,,3,Female,普通话，粤语，英语,没有,6595d5e0e40533319c0188c2,Chrome,Mac,900,1440,7.1082,
33,condition1,2,浪,涼,j,2455,115,涼,phon-phon,[],32,No,19,32,18,18,,3,Female,普通话，粤语，英语,没有,6595d5e0e40533319c0188c2,Chrome,Mac,900,1440,7.1082,
33,condition1,2,遂,喝,j,2306,116,喝,con,[],32,No,19,32,18,18,,3,Female,普通话，粤语，英语,没有,6595d5e0e40533319c0188c2,Chrome,Mac,900,1440,7.1082,
33,condition1,1,尷,尷,f,2239,117,尬,sem-sem,[],32,No,19,32,18,18,,3,Female,普通话，粤语，英语,没有,6595d5e0e40533319c0188c2,Chrome,Mac,900,1440,7.1082,
33,condition1,1,首,首,f,2104,118,俊,con,[],32,No,19,32,18,18,,3,Female,普通话，粤语，英语,没有,6595d5e0e40533319c0188c2,Chrome,Mac,900,1440,7.1082,
33,condition1,2,陌,擺,j,2156,119,擺,phon-phon,[],32,No,19,32,18,18,,3,Female,普通话，粤语，英语,没有,6595d5e0e40533319c0188c2,Chrome,Mac,900,1440,7.1082,
33,condition1,1,攤,攤,f,2409,120,南,phon-phon,[],32,No,19,32,18,18,,3,Female,普通话，粤语，英语,没有,6595d5e0e40533319c0188c2,Chrome,Mac,900,1440,7.1082,
33,condition1,2,盔,甲,j,2281,121,甲,sem-sem,[],32,No,19,32,18,18,,3,Female,普通话，粤语，英语,没有,6595d5e0e40533319c0188c2,Chrome,Mac,900,1440,7.1082,
33,condition1,1,讚,讚,f,2171,122,成,phon-sem,[],32,No,19,32,18,18,,3,Female,普通话，粤语，英语,没有,6595d5e0e40533319c0188c2,Chrome,Mac,900,1440,7.1082,
33,condition1,1,眠,眠,f,2274,123,務,con,[],32,No,19,32,18,18,,3,Female,普通话，粤语，英语,没有,6595d5e0e40533319c0188c2,Chrome,Mac,900,1440,7.1082,
33,condition1,2,宜,其,j,2324,124,其,con,[],32,No,19,32,18,18,,3,Female,普通话，粤语，英语,没有,6595d5e0e40533319c0188c2,Chrome,Mac,900,1440,7.1082,
33,condition1,1,迅,迅,f,2219,125,速,sem-sem,[],32,No,19,32,18,18,,3,Female,普通话，粤语，英语,没有,6595d5e0e40533319c0188c2,Chrome,Mac,900,1440,7.1082,
33,condition1,2,虐,待,j,2320,126,待,sem-sem,[],32,No,19,32,18,18,,3,Female,普通话，粤语，英语,没有,6595d5e0e40533319c0188c2,Chrome,Mac,900,1440,7.1082,
33,condition1,2,孝,順,j,2157,127,順,sem-sem,[],32,No,19,32,18,18,,3,Female,普通话，粤语，英语,没有,6595d5e0e40533319c0188c2,Chrome,Mac,900,1440,7.1082,
33,condition1,1,謂,謂,f,2111,128,腸,phon-sem,[],32,No,19,32,18,18,,3,Female,普通话，粤语，英语,没有,6595d5e0e40533319c0188c2,Chrome,Mac,900,1440,7.1082,
33,condition1,2,提,市,j,2200,129,市,phon-phon,[],32,No,19,32,18,18,,3,Female,普通话，粤语，英语,没有,6595d5e0e40533319c0188c2,Chrome,Mac,900,1440,7.1082,
33,condition1,2,廁,所,j,2000,130,所,sem-sem,[],32,No,19,32,18,18,,3,Female,普通话，粤语，英语,没有,6595d5e0e40533319c0188c2,Chrome,Mac,900,1440,7.1082,
33,condition1,1,擒,擒,f,2117,131,獸,phon-sem,[],32,No,19,32,18,18,,3,Female,普通话，粤语，英语,没有,6595d5e0e40533319c0188c2,Chrome,Mac,900,1440,7.1082,
33,condition1,1,遵,遵,f,2066,132,重,phon-sem,[],32,No,19,32,18,18,,3,Female,普通话，粤语，英语,没有,6595d5e0e40533319c0188c2,Chrome,Mac,900,1440,7.1082,
33,condition1,1,烤,烤,f,2041,133,試,phon-sem,[],32,No,19,32,18,18,,3,Female,普通话，粤语，英语,没有,6595d5e0e40533319c0188c2,Chrome,Mac,900,1440,7.1082,
33,condition1,2,拯,救,j,2399,134,救,sem-sem,[],32,No,19,32,18,18,,3,Female,普通话，粤语，英语,没有,6595d5e0e40533319c0188c2,Chrome,Mac,900,1440,7.1082,
33,condition1,2,輾,斬,j,2043,135,斬,phon-phon,[],32,No,19,32,18,18,,3,Female,普通话，粤语，英语,没有,6595d5e0e40533319c0188c2,Chrome,Mac,900,1440,7.1082,
33,condition1,2,離,開,j,2149,136,開,sem-sem,[],32,No,19,32,18,18,,3,Female,普通话，粤语，英语,没有,6595d5e0e40533319c0188c2,Chrome,Mac,900,1440,7.1082,
33,condition1,1,陀,陀,f,1969,137,他,phon-phon,[],32,No,19,32,18,18,,3,Female,普通话，粤语，英语,没有,6595d5e0e40533319c0188c2,Chrome,Mac,900,1440,7.1082,
33,condition1,2,極,損,j,2034,138,損,con,[],32,No,19,32,18,18,,3,Female,普通话，粤语，英语,没有,6595d5e0e40533319c0188c2,Chrome,Mac,900,1440,7.1082,
33,condition1,2,誌,願,j,2109,139,願,phon-sem,[],32,No,19,32,18,18,,3,Female,普通话，粤语，英语,没有,6595d5e0e40533319c0188c2,Chrome,Mac,900,1440,7.1082,
33,condition1,2,黑,白,j,2716,140,白,sem-sem,[],32,No,19,32,18,18,,3,Female,普通话，粤语，英语,没有,6595d5e0e40533319c0188c2,Chrome,Mac,900,1440,7.1082,
33,condition1,1,矚,矚,f,2016,141,數,phon-phon,[],32,No,19,32,18,18,,3,Female,普通话，粤语，英语,没有,6595d5e0e40533319c0188c2,Chrome,Mac,900,1440,7.1082,
33,condition1,2,仗,夫,j,1789,142,夫,phon-sem,[],32,No,19,32,18,18,,3,Female,普通话，粤语，英语,没有,6595d5e0e40533319c0188c2,Chrome,Mac,900,1440,7.1082,
33,condition1,1,殖,殖,f,2146,143,游,con,[],32,No,19,32,18,18,,3,Female,普通话，粤语，英语,没有,6595d5e0e40533319c0188c2,Chrome,Mac,900,1440,7.1082,
33,condition1,1,奴,奴,f,1976,144,隸,sem-sem,[],32,No,19,32,18,18,,3,Female,普通话，粤语，英语,没有,6595d5e0e40533319c0188c2,Chrome,Mac,900,1440,7.1082,
33,condition1,2,倖,福,j,2423,145,福,phon-sem,[],32,No,19,32,18,18,,3,Female,普通话，粤语，英语,没有,6595d5e0e40533319c0188c2,Chrome,Mac,900,1440,7.1082,
33,condition1,1,喜,喜,f,2663,146,歡,sem-sem,[],32,No,19,32,18,18,,3,Female,普通话，粤语，英语,没有,6595d5e0e40533319c0188c2,Chrome,Mac,900,1440,7.1082,
33,condition1,1,楣,楣,f,2281,147,毛,phon-sem,[],32,No,19,32,18,18,,3,Female,普通话，粤语，英语,没有,6595d5e0e40533319c0188c2,Chrome,Mac,900,1440,7.1082,
33,condition1,1,倪,倪,f,2090,148,而,phon-phon,[],32,No,19,32,18,18,,3,Female,普通话，粤语，英语,没有,6595d5e0e40533319c0188c2,Chrome,Mac,900,1440,7.1082,
33,condition1,1,寫,寫,f,2551,149,字,sem-sem,[],32,No,19,32,18,18,,3,Female,普通话，粤语，英语,没有,6595d5e0e40533319c0188c2,Chrome,Mac,900,1440,7.1082,
33,condition1,1,棋,棋,f,2044,150,實,phon-sem,[],32,No,19,32,18,18,,3,Female,普通话，粤语，英语,没有,6595d5e0e40533319c0188c2,Chrome,Mac,900,1440,7.1082,
33,condition1,1,黎,黎,f,2031,152,彬,con,[],32,No,19,32,18,18,,3,Female,普通话，粤语，英语,没有,6595d5e0e40533319c0188c2,Chrome,Mac,900,1440,7.1082,
33,condition1,2,秩,肯,j,2325,153,肯,con,[],32,No,19,32,18,18,,3,Female,普通话，粤语，英语,没有,6595d5e0e40533319c0188c2,Chrome,Mac,900,1440,7.1082,
33,condition1,2,鏗,間,j,1982,154,間,phon-phon,[],32,No,19,32,18,18,,3,Female,普通话，粤语，英语,没有,6595d5e0e40533319c0188c2,Chrome,Mac,900,1440,7.1082,
33,condition1,1,瑰,瑰,f,1921,155,殺,con,[],32,No,19,32,18,18,,3,Female,普通话，粤语，英语,没有,6595d5e0e40533319c0188c2,Chrome,Mac,900,1440,7.1082,
33,condition1,2,憾,敢,j,1945,156,敢,phon-phon,[],32,No,19,32,18,18,,3,Female,普通话，粤语，英语,没有,6595d5e0e40533319c0188c2,Chrome,Mac,900,1440,7.1082,
33,condition1,2,程,現,j,1844,157,現,phon-sem,[],32,No,19,32,18,18,,3,Female,普通话，粤语，英语,没有,6595d5e0e40533319c0188c2,Chrome,Mac,900,1440,7.1082,
33,condition1,2,錶,示,j,1945,158,示,phon-sem,[],32,No,19,32,18,18,,3,Female,普通话，粤语，英语,没有,6595d5e0e40533319c0188c2,Chrome,Mac,900,1440,7.1082,
33,condition1,1,傢,傢,f,2262,159,人,phon-sem,[],32,No,19,32,18,18,,3,Female,普通话，粤语，英语,没有,6595d5e0e40533319c0188c2,Chrome,Mac,900,1440,7.1082,
33,condition1,1,燈,燈,f,1789,160,山,phon-sem,[],32,No,19,32,18,18,,3,Female,普通话，粤语，英语,没有,6595d5e0e40533319c0188c2,Chrome,Mac,900,1440,7.1082,
33,condition1,1,煉,煉,f,2025,161,葉,con,[],32,No,19,32,18,18,,3,Female,普通话，粤语，英语,没有,6595d5e0e40533319c0188c2,Chrome,Mac,900,1440,7.1082,
33,condition1,2,耕,警,j,2041,162,警,phon-phon,[],32,No,19,32,18,18,,3,Female,普通话，粤语，英语,没有,6595d5e0e40533319c0188c2,Chrome,Mac,900,1440,7.1082,
33,condition1,2,晚,勉,j,2104,163,勉,phon-phon,[],32,No,19,32,18,18,,3,Female,普通话，粤语，英语,没有,6595d5e0e40533319c0188c2,Chrome,Mac,900,1440,7.1082,
33,condition1,2,很,車,j,2732,164,車,con,[],32,No,19,32,18,18,,3,Female,普通话，粤语，英语,没有,6595d5e0e40533319c0188c2,Chrome,Mac,900,1440,7.1082,
33,condition1,1,跑,跑,f,2006,165,剝,phon-phon,[],32,No,19,32,18,18,,3,Female,普通话，粤语，英语,没有,6595d5e0e40533319c0188c2,Chrome,Mac,900,1440,7.1082,
33,condition1,2,懈,姐,j,2093,166,姐,phon-phon,[],32,No,19,32,18,18,,3,Female,普通话，粤语，英语,没有,6595d5e0e40533319c0188c2,Chrome,Mac,900,1440,7.1082,
33,condition1,2,掘,區,j,2051,167,區,phon-phon,[],32,No,19,32,18,18,,3,Female,普通话，粤语，英语,没有,6595d5e0e40533319c0188c2,Chrome,Mac,900,1440,7.1082,
33,condition1,2,夫,妻,j,2197,168,妻,sem-sem,[],32,No,19,32,18,18,,3,Female,普通话，粤语，英语,没有,6595d5e0e40533319c0188c2,Chrome,Mac,900,1440,7.1082,
33,condition1,2,移,勝,j,2064,169,勝,con,[],32,No,19,32,18,18,,3,Female,普通话，粤语，英语,没有,6595d5e0e40533319c0188c2,Chrome,Mac,900,1440,7.1082,
33,condition1,1,觸,觸,f,2175,170,屬,phon-phon,[],32,No,19,32,18,18,,3,Female,普通话，粤语，英语,没有,6595d5e0e40533319c0188c2,Chrome,Mac,900,1440,7.1082,
33,condition1,2,拒,大,j,1848,171,大,phon-sem,[],32,No,19,32,18,18,,3,Female,普通话，粤语，英语,没有,6595d5e0e40533319c0188c2,Chrome,Mac,900,1440,7.1082,
33,condition1,2,讀,邁,j,2150,172,邁,phon-phon,[],32,No,19,32,18,18,,3,Female,普通话，粤语，英语,没有,6595d5e0e40533319c0188c2,Chrome,Mac,900,1440,7.1082,
33,condition1,1,羨,羨,f,2098,173,慕,sem-sem,[],32,No,19,32,18,18,,3,Female,普通话，粤语，英语,没有,6595d5e0e40533319c0188c2,Chrome,Mac,900,1440,7.1082,
33,condition1,2,擺,霸,j,2068,174,霸,phon-phon,[],32,No,19,32,18,18,,3,Female,普通话，粤语，英语,没有,6595d5e0e40533319c0188c2,Chrome,Mac,900,1440,7.1082,
33,condition1,2,邦,鎖,j,2039,175,鎖,con,[],32,No,19,32,18,18,,3,Female,普通话，粤语，英语,没有,6595d5e0e40533319c0188c2,Chrome,Mac,900,1440,7.1082,
33,condition1,2,額,賽,j,1987,176,賽,con,[],32,No,19,32,18,18,,3,Female,普通话，粤语，英语,没有,6595d5e0e40533319c0188c2,Chrome,Mac,900,1440,7.1082,
33,condition1,1,財,財,f,1914,177,能,phon-sem,[],32,No,19,32,18,18,,3,Female,普通话，粤语，英语,没有,6595d5e0e40533319c0188c2,Chrome,Mac,900,1440,7.1082,
33,condition1,2,手,腳,j,2692,178,腳,sem-sem,[],32,No,19,32,18,18,,3,Female,普通话，粤语，英语,没有,6595d5e0e40533319c0188c2,Chrome,Mac,900,1440,7.1082,
33,condition1,2,餵,懼,j,2069,179,懼,phon-sem,[],32,No,19,32,18,18,,3,Female,普通话，粤语，英语,没有,6595d5e0e40533319c0188c2,Chrome,Mac,900,1440,7.1082,
33,condition1,1,跟,跟,f,2421,180,董,con,[],32,No,19,32,18,18,,3,Female,普通话，粤语，英语,没有,6595d5e0e40533319c0188c2,Chrome,Mac,900,1440,7.1082,
33,condition1,1,余,余,f,2328,181,別,con,[],32,No,19,32,18,18,,3,Female,普通话，粤语，英语,没有,6595d5e0e40533319c0188c2,Chrome,Mac,900,1440,7.1082,
33,condition1,1,滑,滑,f,2405,182,谷,phon-phon,[],32,No,19,32,18,18,,3,Female,普通话，粤语，英语,没有,6595d5e0e40533319c0188c2,Chrome,Mac,900,1440,7.1082,
33,condition1,1,謝,謝,f,1988,183,社,phon-phon,[],32,No,19,32,18,18,,3,Female,普通话，粤语，英语,没有,6595d5e0e40533319c0188c2,Chrome,Mac,900,1440,7.1082,
33,condition1,1,個,個,f,2110,184,故,phon-phon,[],32,No,19,32,18,18,,3,Female,普通话，粤语，英语,没有,6595d5e0e40533319c0188c2,Chrome,Mac,900,1440,7.1082,
33,condition1,1,婚,婚,f,2697,185,迷,phon-sem,[],32,No,19,32,18,18,,3,Female,普通话，粤语，英语,没有,6595d5e0e40533319c0188c2,Chrome,Mac,900,1440,7.1082,
33,condition1,1,早,早,f,1927,186,晚,sem-sem,[],32,No,19,32,18,18,,3,Female,普通话，粤语，英语,没有,6595d5e0e40533319c0188c2,Chrome,Mac,900,1440,7.1082,
33,condition1,1,溶,溶,f,2465,187,易,phon-sem,[],32,No,19,32,18,18,,3,Female,普通话，粤语，英语,没有,6595d5e0e40533319c0188c2,Chrome,Mac,900,1440,7.1082,
33,condition1,1,畢,畢,f,2325,188,業,sem-sem,[],32,No,19,32,18,18,,3,Female,普通话，粤语，英语,没有,6595d5e0e40533319c0188c2,Chrome,Mac,900,1440,7.1082,
33,condition1,2,檔,諾,j,2027,189,諾,con,[],32,No,19,32,18,18,,3,Female,普通话，粤语，英语,没有,6595d5e0e40533319c0188c2,Chrome,Mac,900,1440,7.1082,
33,condition1,1,妹,妹,f,2355,190,喂,phon-phon,[],32,No,19,32,18,18,,3,Female,普通话，粤语，英语,没有,6595d5e0e40533319c0188c2,Chrome,Mac,900,1440,7.1082,
14,condition1,1,黑,黑,f,2014,8,白,sem-sem,[],30,No,0,0,0,30,,3,Female,"粵語, 普通話, 英文",,65464f3622cb15acd453c658,Chrome,Windows,1440,2560,1.8415666666666664,
14,condition1,2,喜,歡,j,1895,9,歡,sem-sem,[],30,No,0,0,0,30,,3,Female,"粵語, 普通話, 英文",,65464f3622cb15acd453c658,Chrome,Windows,1440,2560,1.8415666666666664,
14,condition1,2,輾,斬,j,1921,10,斬,phon-phon,[],30,No,0,0,0,30,,3,Female,"粵語, 普通話, 英文",,65464f3622cb15acd453c658,Chrome,Windows,1440,2560,1.8415666666666664,
14,condition1,1,繪,繪,f,1750,11,港,con,[],30,No,0,0,0,30,,3,Female,"粵語, 普通話, 英文",,65464f3622cb15acd453c658,Chrome,Windows,1440,2560,1.8415666666666664,
14,condition1,1,孝,孝,f,1975,12,順,sem-sem,[],30,No,0,0,0,30,,3,Female,"粵語, 普通話, 英文",,65464f3622cb15acd453c658,Chrome,Windows,1440,2560,1.8415666666666664,
14,condition1,2,宜,其,j,1687,13,其,con,[],30,No,0,0,0,30,,3,Female,"粵語, 普通話, 英文",,65464f3622cb15acd453c658,Chrome,Windows,1440,2560,1.8415666666666664,
14,condition1,2,樣,輕,j,1751,14,輕,con,[],30,No,0,0,0,30,,3,Female,"粵語, 普通話, 英文",,65464f3622cb15acd453c658,Chrome,Windows,1440,2560,1.8415666666666664,
14,condition1,1,戚,戚,f,1864,15,唐,con,[],30,No,0,0,0,30,,3,Female,"粵語, 普通話, 英文",,65464f3622cb15acd453c658,Chrome,Windows,1440,2560,1.8415666666666664,
14,condition1,2,棚,友,j,1743,16,友,phon-sem,[],30,No,0,0,0,30,,3,Female,"粵語, 普通話, 英文",,65464f3622cb15acd453c658,Chrome,Windows,1440,2560,1.8415666666666664,
14,condition1,2,憾,敢,j,1919,17,敢,phon-phon,[],30,No,0,0,0,30,,3,Female,"粵語, 普通話, 英文",,65464f3622cb15acd453c658,Chrome,Windows,1440,2560,1.8415666666666664,
14,condition1,2,秩,肯,j,2087,18,肯,con,[],30,No,0,0,0,30,,3,Female,"粵語, 普通話, 英文",,65464f3622cb15acd453c658,Chrome,Windows,1440,2560,1.8415666666666664,
14,condition1,1,濃,濃,f,1848,19,田,phon-sem,[],30,No,0,0,0,30,,3,Female,"粵語, 普通話, 英文",,65464f3622cb15acd453c658,Chrome,Windows,1440,2560,1.8415666666666664,
14,condition1,1,程,程,f,1695,20,現,phon-sem,[],30,No,0,0,0,30,,3,Female,"粵語, 普通話, 英文",,65464f3622cb15acd453c658,Chrome,Windows,1440,2560,1.8415666666666664,
14,condition1,2,藥,邀,j,1743,21,邀,con,[],30,No,0,0,0,30,,3,Female,"粵語, 普通話, 英文",,65464f3622cb15acd453c658,Chrome,Windows,1440,2560,1.8415666666666664,
14,condition1,2,倖,福,j,1831,22,福,phon-sem,[],30,No,0,0,0,30,,3,Female,"粵語, 普通話, 英文",,65464f3622cb15acd453c658,Chrome,Windows,1440,2560,1.8415666666666664,
14,condition1,2,孩,侵,j,1880,23,侵,con,[],30,No,0,0,0,30,,3,Female,"粵語, 普通話, 英文",,65464f3622cb15acd453c658,Chrome,Windows,1440,2560,1.8415666666666664,
14,condition1,1,首,首,f,1815,24,俊,con,[],30,No,0,0,0,30,,3,Female,"粵語, 普通話, 英文",,65464f3622cb15acd453c658,Chrome,Windows,1440,2560,1.8415666666666664,
14,condition1,1,帳,帳,f,1775,25,煮,con,[],30,No,0,0,0,30,,3,Female,"粵語, 普通話, 英文",,65464f3622cb15acd453c658,Chrome,Windows,1440,2560,1.8415666666666664,
14,condition1,1,冰,冰,f,1799,26,冷,sem-sem,[],30,No,0,0,0,30,,3,Female,"粵語, 普通話, 英文",,65464f3622cb15acd453c658,Chrome,Windows,1440,2560,1.8415666666666664,
14,condition1,2,拒,大,j,1791,27,大,phon-sem,[],30,No,0,0,0,30,,3,Female,"粵語, 普通話, 英文",,65464f3622cb15acd453c658,Chrome,Windows,1440,2560,1.8415666666666664,
14,condition1,1,楣,楣,f,1735,28,毛,phon-sem,[],30,No,0,0,0,30,,3,Female,"粵語, 普通話, 英文",,65464f3622cb15acd453c658,Chrome,Windows,1440,2560,1.8415666666666664,
14,condition1,2,雖,營,j,1856,29,營,con,[],30,No,0,0,0,30,,3,Female,"粵語, 普通話, 英文",,65464f3622cb15acd453c658,Chrome,Windows,1440,2560,1.8415666666666664,
14,condition1,2,渡,量,j,2431,30,量,phon-sem,[],30,No,0,0,0,30,,3,Female,"粵語, 普通話, 英文",,65464f3622cb15acd453c658,Chrome,Windows,1440,2560,1.8415666666666664,
14,condition1,1,諷,諷,f,1832,31,刺,sem-sem,[],30,No,0,0,0,30,,3,Female,"粵語, 普通話, 英文",,65464f3622cb15acd453c658,Chrome,Windows,1440,2560,1.8415666666666664,
14,condition1,2,縮,素,j,1911,32,素,phon-phon,[],30,No,0,0,0,30,,3,Female,"粵語, 普通話, 英文",,65464f3622cb15acd453c658,Chrome,Windows,1440,2560,1.8415666666666664,
14,condition1,1,遂,遂,f,1783,33,喝,con,[],30,No,0,0,0,30,,3,Female,"粵語, 普通話, 英文",,65464f3622cb15acd453c658,Chrome,Windows,1440,2560,1.8415666666666664,
14,condition1,2,瑰,殺,j,1671,34,殺,con,[],30,No,0,0,0,30,,3,Female,"粵語, 普通話, 英文",,65464f3622cb15acd453c658,Chrome,Windows,1440,2560,1.8415666666666664,
14,condition1,2,健,立,j,1824,35,立,phon-sem,[],30,No,0,0,0,30,,3,Female,"粵語, 普通話, 英文",,65464f3622cb15acd453c658,Chrome,Windows,1440,2560,1.8415666666666664,
14,condition1,2,銘,字,j,1703,36,字,phon-sem,[],30,No,0,0,0,30,,3,Female,"粵語, 普通話, 英文",,65464f3622cb15acd453c658,Chrome,Windows,1440,2560,1.8415666666666664,
14,condition1,1,糖,糖,f,1760,37,鄰,con,[],30,No,0,0,0,30,,3,Female,"粵語, 普通話, 英文",,65464f3622cb15acd453c658,Chrome,Windows,1440,2560,1.8415666666666664,
14,condition1,1,板,板,f,1935,38,翻,phon-phon,[],30,No,0,0,0,30,,3,Female,"粵語, 普通話, 英文",,65464f3622cb15acd453c658,Chrome,Windows,1440,2560,1.8415666666666664,
14,condition1,2,叫,六,j,1879,39,六,con,[],30,No,0,0,0,30,,3,Female,"粵語, 普通話, 英文",,65464f3622cb15acd453c658,Chrome,Windows,1440,2560,1.8415666666666664,
14,condition1,1,森,森,f,2031,40,林,sem-sem,[],30,No,0,0,0,30,,3,Female,"粵語, 普通話, 英文",,65464f3622cb15acd453c658,Chrome,Windows,1440,2560,1.8415666666666664,
14,condition1,2,輸,贏,j,1824,41,贏,sem-sem,[],30,No,0,0,0,30,,3,Female,"粵語, 普通話, 英文",,65464f3622cb15acd453c658,Chrome,Windows,1440,2560,1.8415666666666664,
14,condition1,2,耕,警,j,1863,42,警,phon-phon,[],30,No,0,0,0,30,,3,Female,"粵語, 普通話, 英文",,65464f3622cb15acd453c658,Chrome,Windows,1440,2560,1.8415666666666664,
14,condition1,1,盪,盪,f,1792,43,棍,con,[],30,No,0,0,0,30,,3,Female,"粵語, 普通話, 英文",,65464f3622cb15acd453c658,Chrome,Windows,1440,2560,1.8415666666666664,
14,condition1,2,夫,妻,j,1887,44,妻,sem-sem,[],30,No,0,0,0,30,,3,Female,"粵語, 普通話, 英文",,65464f3622cb15acd453c658,Chrome,Windows,1440,2560,1.8415666666666664,
14,condition1,1,邦,邦,f,1927,45,鎖,con,[],30,No,0,0,0,30,,3,Female,"粵語, 普通話, 英文",,65464f3622cb15acd453c658,Chrome,Windows,1440,2560,1.8415666666666664,
14,condition1,1,陌,陌,f,1872,46,擺,phon-phon,[],30,No,0,0,0,30,,3,Female,"粵語, 普通話, 英文",,65464f3622cb15acd453c658,Chrome,Windows,1440,2560,1.8415666666666664,
14,condition1,1,肥,肥,f,2272,47,胖,sem-sem,[],30,No,0,0,0,30,,3,Female,"粵語, 普通話, 英文",,65464f3622cb15acd453c658,Chrome,Windows,1440,2560,1.8415666666666664,
14,condition1,1,擺,擺,f,1863,48,霸,phon-phon,[],30,No,0,0,0,30,,3,Female,"粵語, 普通話, 英文",,65464f3622cb15acd453c658,Chrome,Windows,1440,2560,1.8415666666666664,
14,condition1,1,汐,汐,f,2023,49,陽,phon-sem,[],30,No,0,0,0,30,,3,Female,"粵語, 普通話, 英文",,65464f3622cb15acd453c658,Chrome,Windows,1440,2560,1.8415666666666664,
14,condition1,1,手,手,f,1815,50,腳,sem-sem,[],30,No,0,0,0,30,,3,Female,"粵語, 普通話, 英文",,65464f3622cb15acd453c658,Chrome,Windows,1440,2560,1.8415666666666664,
14,condition1,1,臭,臭,f,2142,52,堂,con,[],30,No,0,0,0,30,,3,Female,"粵語, 普通話, 英文",,65464f3622cb15acd453c658,Chrome,Windows,1440,2560,1.8415666666666664,
14,condition1,1,審,審,f,1688,53,判,sem-sem,[],30,No,0,0,0,30,,3,Female,"粵語, 普通話, 英文",,65464f3622cb15acd453c658,Chrome,Windows,1440,2560,1.8415666666666664,
14,condition1,2,早,晚,j,1736,54,晚,sem-sem,[],30,No,0,0,0,30,,3,Female,"粵語, 普通話, 英文",,65464f3622cb15acd453c658,Chrome,Windows,1440,2560,1.8415666666666664,
14,condition1,1,儘,儘,f,1680,55,量,phon-sem,[],30,No,0,0,0,30,,3,Female,"粵語, 普通話, 英文",,65464f3622cb15acd453c658,Chrome,Windows,1440,2560,1.8415666666666664,
14,condition1,1,稀,稀,f,1608,56,望,phon-sem,[],30,No,0,0,0,30,,3,Female,"粵語, 普通話, 英文",,65464f3622cb15acd453c658,Chrome,Windows,1440,2560,1.8415666666666664,
14,condition1,2,城,功,j,1576,57,功,phon-sem,[],30,No,0,0,0,30,,3,Female,"粵語, 普通話, 英文",,65464f3622cb15acd453c658,Chrome,Windows,1440,2560,1.8415666666666664,
14,condition1,1,梓,梓,f,1711,58,某,con,[],30,No,0,0,0,30,,3,Female,"粵語, 普通話, 英文",,65464f3622cb15acd453c658,Chrome,Windows,1440,2560,1.8415666666666664,
14,condition1,2,跟,董,j,1672,59,董,con,[],30,No,0,0,0,30,,3,Female,"粵語, 普通話, 英文",,65464f3622cb15acd453c658,Chrome,Windows,1440,2560,1.8415666666666664,
14,condition1,1,掘,掘,f,1688,60,區,phon-phon,[],30,No,0,0,0,30,,3,Female,"粵語, 普通話, 英文",,65464f3622cb15acd453c658,Chrome,Windows,1440,2560,1.8415666666666664,
14,condition1,2,軸,階,j,1816,61,階,con,[],30,No,0,0,0,30,,3,Female,"粵語, 普通話, 英文",,65464f3622cb15acd453c658,Chrome,Windows,1440,2560,1.8415666666666664,
14,condition1,2,額,賽,j,1664,62,賽,con,[],30,No,0,0,0,30,,3,Female,"粵語, 普通話, 英文",,65464f3622cb15acd453c658,Chrome,Windows,1440,2560,1.8415666666666664,
14,condition1,1,浪,浪,f,1832,63,涼,phon-phon,[],30,No,0,0,0,30,,3,Female,"粵語, 普通話, 英文",,65464f3622cb15acd453c658,Chrome,Windows,1440,2560,1.8415666666666664,
14,condition1,2,形,再,j,1832,64,再,con,[],30,No,0,0,0,30,,3,Female,"粵語, 普通話, 英文",,65464f3622cb15acd453c658,Chrome,Windows,1440,2560,1.8415666666666664,
14,condition1,1,螺,螺,f,1840,65,類,phon-phon,[],30,No,0,0,0,30,,3,Female,"粵語, 普通話, 英文",,65464f3622cb15acd453c658,Chrome,Windows,1440,2560,1.8415666666666664,
14,condition1,2,鏗,間,j,1584,66,間,phon-phon,[],30,No,0,0,0,30,,3,Female,"粵語, 普通話, 英文",,65464f3622cb15acd453c658,Chrome,Windows,1440,2560,1.8415666666666664,
14,condition1,1,划,划,f,1664,67,船,sem-sem,[],30,No,0,0,0,30,,3,Female,"粵語, 普通話, 英文",,65464f3622cb15acd453c658,Chrome,Windows,1440,2560,1.8415666666666664,
14,condition1,2,那,飛,j,1840,68,飛,con,[],30,No,0,0,0,30,,3,Female,"粵語, 普通話, 英文",,65464f3622cb15acd453c658,Chrome,Windows,1440,2560,1.8415666666666664,
14,condition1,2,謂,腸,j,1856,69,腸,phon-sem,[],30,No,0,0,0,30,,3,Female,"粵語, 普通話, 英文",,65464f3622cb15acd453c658,Chrome,Windows,1440,2560,1.8415666666666664,
14,condition1,1,溶,溶,f,1696,70,易,phon-sem,[],30,No,0,0,0,30,,3,Female,"粵語, 普通話, 英文",,65464f3622cb15acd453c658,Chrome,Windows,1440,2560,1.8415666666666664,
14,condition1,2,源,因,j,1751,71,因,phon-sem,[],30,No,0,0,0,30,,3,Female,"粵語, 普通話, 英文",,65464f3622cb15acd453c658,Chrome,Windows,1440,2560,1.8415666666666664,
14,condition1,1,煉,煉,f,1704,72,葉,con,[],30,No,0,0,0,30,,3,Female,"粵語, 普通話, 英文",,65464f3622cb15acd453c658,Chrome,Windows,1440,2560,1.8415666666666664,
14,condition1,2,湧,敢,j,1623,73,敢,phon-sem,[],30,No,0,0,0,30,,3,Female,"粵語, 普通話, 英文",,65464f3622cb15acd453c658,Chrome,Windows,1440,2560,1.8415666666666664,
14,condition1,1,烤,烤,f,1784,74,試,phon-sem,[],30,No,0,0,0,30,,3,Female,"粵語, 普通話, 英文",,65464f3622cb15acd453c658,Chrome,Windows,1440,2560,1.8415666666666664,
14,condition1,1,棋,棋,f,1952,75,實,phon-sem,[],30,No,0,0,0,30,,3,Female,"粵語, 普通話, 英文",,65464f3622cb15acd453c658,Chrome,Windows,1440,2560,1.8415666666666664,
14,condition1,2,梯,帝,j,1656,76,帝,phon-phon,[],30,No,0,0,0,30,,3,Female,"粵語, 普通話, 英文",,65464f3622cb15acd453c658,Chrome,Windows,1440,2560,1.8415666666666664,
14,condition1,1,燈,燈,f,1720,77,山,phon-sem,[],30,No,0,0,0,30,,3,Female,"粵語, 普通話, 英文",,65464f3622cb15acd453c658,Chrome,Windows,1440,2560,1.8415666666666664,
14,condition1,2,仇,恨,f,1768,78,恨,sem-sem,[],30,No,0,0,0,30,,3,Female,"粵語, 普通話, 英文",,65464f3622cb15acd453c658,Chrome,Windows,1440,2560,1.8415666666666664,
14,condition1,2,奴,隸,j,1680,79,隸,sem-sem,[],30,No,0,0,0,30,,3,Female,"粵語, 普通話, 英文",,65464f3622cb15acd453c658,Chrome,Windows,1440,2560,1.8415666666666664,
14,condition1,1,真,真,f,1792,80,實,sem-sem,[],30,No,0,0,0,30,,3,Female,"粵語, 普通話, 英文",,65464f3622cb15acd453c658,Chrome,Windows,1440,2560,1.8415666666666664,
14,condition1,1,堪,堪,f,1752,81,慎,phon-phon,[],30,No,0,0,0,30,,3,Female,"粵語, 普通話, 英文",,65464f3622cb15acd453c658,Chrome,Windows,1440,2560,1.8415666666666664,
14,condition1,1,觸,觸,f,1800,82,屬,phon-phon,[],30,No,0,0,0,30,,3,Female,"粵語, 普通話, 英文",,65464f3622cb15acd453c658,Chrome,Windows,1440,2560,1.8415666666666664,
14,condition1,1,厭,厭,f,1704,83,惡,sem-sem,[],30,No,0,0,0,30,,3,Female,"粵語, 普通話, 英文",,65464f3622cb15acd453c658,Chrome,Windows,1440,2560,1.8415666666666664,
14,condition1,2,離,開,j,1584,84,開,sem-sem,[],30,No,0,0,0,30,,3,Female,"粵語, 普通話, 英文",,65464f3622cb15acd453c658,Chrome,Windows,1440,2560,1.8415666666666664,
14,condition1,1,餵,餵,f,1680,85,懼,phon-sem,[],30,No,0,0,0,30,,3,Female,"粵語, 普通話, 英文",,65464f3622cb15acd453c658,Chrome,Windows,1440,2560,1.8415666666666664,
14,condition1,1,羨,羨,f,1888,86,慕,sem-sem,[],30,No,0,0,0,30,,3,Female,"粵語, 普通話, 英文",,65464f3622cb15acd453c658,Chrome,Windows,1440,2560,1.8415666666666664,
14,condition1,2,寫,字,j,1672,87,字,sem-sem,[],30,No,0,0,0,30,,3,Female,"粵語, 普通話, 英文",,65464f3622cb15acd453c658,Chrome,Windows,1440,2560,1.8415666666666664,
14,condition1,1,銀,銀,f,1680,88,蓋,con,[],30,No,0,0,0,30,,3,Female,"粵語, 普通話, 英文",,65464f3622cb15acd453c658,Chrome,Windows,1440,2560,1.8415666666666664,
14,condition1,2,倪,而,j,1632,89,而,phon-phon,[],30,No,0,0,0,30,,3,Female,"粵語, 普通話, 英文",,65464f3622cb15acd453c658,Chrome,Windows,1440,2560,1.8415666666666664,
14,condition1,1,壯,壯,f,1776,90,另,con,[],30,No,0,0,0,30,,3,Female,"粵語, 普通話, 英文",,65464f3622cb15acd453c658,Chrome,Windows,1440,2560,1.8415666666666664,
14,condition1,2,跑,剝,j,1632,91,剝,phon-phon,[],30,No,0,0,0,30,,3,Female,"粵語, 普通話, 英文",,65464f3622cb15acd453c658,Chrome,Windows,1440,2560,1.8415666666666664,
14,condition1,2,針,線,j,1688,92,線,sem-sem,[],30,No,0,0,0,30,,3,Female,"粵語, 普通話, 英文",,65464f3622cb15acd453c658,Chrome,Windows,1440,2560,1.8415666666666664,
14,condition1,2,惶,帝,j,1751,93,帝,phon-sem,[],30,No,0,0,0,30,,3,Female,"粵語, 普通話, 英文",,65464f3622cb15acd453c658,Chrome,Windows,1440,2560,1.8415666666666664,
14,condition1,1,攤,攤,f,1744,94,南,phon-phon,[],30,No,0,0,0,30,,3,Female,"粵語, 普通話, 英文",,65464f3622cb15acd453c658,Chrome,Windows,1440,2560,1.8415666666666664,
14,condition1,1,財,財,f,1736,95,能,phon-sem,[],30,No,0,0,0,30,,3,Female,"粵語, 普通話, 英文",,65464f3622cb15acd453c658,Chrome,Windows,1440,2560,1.8415666666666664,
14,condition1,2,嬰,兒,j,1624,96,兒,sem-sem,[],30,No,0,0,0,30,,3,Female,"粵語, 普通話, 英文",,65464f3622cb15acd453c658,Chrome,Windows,1440,2560,1.8415666666666664,
14,condition1,2,儒,須,j,1880,97,須,phon-phon,[],30,No,0,0,0,30,,3,Female,"粵語, 普通話, 英文",,65464f3622cb15acd453c658,Chrome,Windows,1440,2560,1.8415666666666664,
14,condition1,1,企,企,f,1712,98,天,con,[],30,No,0,0,0,30,,3,Female,"粵語, 普通話, 英文",,65464f3622cb15acd453c658,Chrome,Windows,1440,2560,1.8415666666666664,
14,condition1,1,眠,眠,f,1840,99,務,con,[],30,No,0,0,0,30,,3,Female,"粵語, 普通話, 英文",,65464f3622cb15acd453c658,Chrome,Windows,1440,2560,1.8415666666666664,
14,condition1,1,尷,尷,f,1696,100,尬,sem-sem,[],30,No,0,0,0,30,,3,Female,"粵語, 普通話, 英文",,65464f3622cb15acd453c658,Chrome,Windows,1440,2560,1.8415666666666664,
14,condition1,1,妹,妹,f,2754,102,喂,phon-phon,[],30,No,0,0,0,30,,3,Female,"粵語, 普通話, 英文",,65464f3622cb15acd453c658,Chrome,Windows,1440,2560,1.8415666666666664,
14,condition1,2,壢,史,j,1624,103,史,phon-sem,[],30,No,0,0,0,30,,3,Female,"粵語, 普通話, 英文",,65464f3622cb15acd453c658,Chrome,Windows,1440,2560,1.8415666666666664,
14,condition1,2,矚,數,j,1768,104,數,phon-phon,[],30,No,0,0,0,30,,3,Female,"粵語, 普通話, 英文",,65464f3622cb15acd453c658,Chrome,Windows,1440,2560,1.8415666666666664,
14,condition1,2,東,西,j,1704,105,西,sem-sem,[],30,No,0,0,0,30,,3,Female,"粵語, 普通話, 英文",,65464f3622cb15acd453c658,Chrome,Windows,1440,2560,1.8415666666666664,
14,condition1,1,革,革,f,1672,106,命,sem-sem,[],30,No,0,0,0,30,,3,Female,"粵語, 普通話, 英文",,65464f3622cb15acd453c658,Chrome,Windows,1440,2560,1.8415666666666664,
14,condition1,1,漆,漆,f,1736,107,端,con,[],30,No,0,0,0,30,,3,Female,"粵語, 普通話, 英文",,65464f3622cb15acd453c658,Chrome,Windows,1440,2560,1.8415666666666664,
14,condition1,2,批,筆,j,1648,108,筆,phon-phon,[],30,No,0,0,0,30,,3,Female,"粵語, 普通話, 英文",,65464f3622cb15acd453c658,Chrome,Windows,1440,2560,1.8415666666666664,
14,condition1,1,蔬,蔬,f,1752,109,菜,sem-sem,[],30,No,0,0,0,30,,3,Female,"粵語, 普通話, 英文",,65464f3622cb15acd453c658,Chrome,Windows,1440,2560,1.8415666666666664,
14,condition1,1,錶,錶,f,1976,110,示,phon-sem,[],30,No,0,0,0,30,,3,Female,"粵語, 普通話, 英文",,65464f3622cb15acd453c658,Chrome,Windows,1440,2560,1.8415666666666664,
14,condition1,2,諒,經,j,1712,111,經,phon-phon,[],30,No,0,0,0,30,,3,Female,"粵語, 普通話, 英文",,65464f3622cb15acd453c658,Chrome,Windows,1440,2560,1.8415666666666664,
14,condition1,2,轎,瞧,j,1648,112,瞧,phon-phon,[],30,No,0,0,0,30,,3,Female,"粵語, 普通話, 英文",,65464f3622cb15acd453c658,Chrome,Windows,1440,2560,1.8415666666666664,
14,condition1,1,脆,脆,f,1712,113,微,phon-phon,[],30,No,0,0,0,30,,3,Female,"粵語, 普通話, 英文",,65464f3622cb15acd453c658,Chrome,Windows,1440,2560,1.8415666666666664,
14,condition1,1,結,結,f,1920,114,即,phon-phon,[],30,No,0,0,0,30,,3,Female,"粵語, 普通話, 英文",,65464f3622cb15acd453c658,Chrome,Windows,1440,2560,1.8415666666666664,
14,condition1,1,黎,黎,f,1888,115,彬,con,[],30,No,0,0,0,30,,3,Female,"粵語, 普通話, 英文",,65464f3622cb15acd453c658,Chrome,Windows,1440,2560,1.8415666666666664,
14,condition1,2,傢,人,j,1777,116,人,phon-sem,[],30,No,0,0,0,30,,3,Female,"粵語, 普通話, 英文",,65464f3622cb15acd453c658,Chrome,Windows,1440,2560,1.8415666666666664,
14,condition1,1,盔,盔,f,1783,117,甲,sem-sem,[],30,No,0,0,0,30,,3,Female,"粵語, 普通話, 英文",,65464f3622cb15acd453c658,Chrome,Windows,1440,2560,1.8415666666666664,
14,condition1,2,搔,癢,j,1728,118,癢,sem-sem,[],30,No,0,0,0,30,,3,Female,"粵語, 普通話, 英文",,65464f3622cb15acd453c658,Chrome,Windows,1440,2560,1.8415666666666664,
14,condition1,2,司,進,j,2608,119,進,con,[],30,No,0,0,0,30,,3,Female,"粵語, 普通話, 英文",,65464f3622cb15acd453c658,Chrome,Windows,1440,2560,1.8415666666666664,
14,condition1,1,余,余,f,1696,120,別,con,[],30,No,0,0,0,30,,3,Female,"粵語, 普通話, 英文",,65464f3622cb15acd453c658,Chrome,Windows,1440,2560,1.8415666666666664,
14,condition1,2,根,候,j,1720,121,候,con,[],30,No,0,0,0,30,,3,Female,"粵語, 普通話, 英文",,65464f3622cb15acd453c658,Chrome,Windows,1440,2560,1.8415666666666664,
14,condition1,1,邏,邏,f,1800,122,輯,sem-sem,[],30,No,0,0,0,30,,3,Female,"粵語, 普通話, 英文",,65464f3622cb15acd453c658,Chrome,Windows,1440,2560,1.8415666666666664,
14,condition1,1,克,克,f,1768,123,服,sem-sem,[],30,No,0,0,0,30,,3,Female,"粵語, 普通話, 英文",,65464f3622cb15acd453c658,Chrome,Windows,1440,2560,1.8415666666666664,
14,condition1,2,緊,張,j,1696,124,張,sem-sem,[],30,No,0,0,0,30,,3,Female,"粵語, 普通話, 英文",,65464f3622cb15acd453c658,Chrome,Windows,1440,2560,1.8415666666666664,
14,condition1,2,炸,查,j,1880,125,查,con,[],30,No,0,0,0,30,,3,Female,"粵語, 普通話, 英文",,65464f3622cb15acd453c658,Chrome,Windows,1440,2560,1.8415666666666664,
14,condition1,1,極,極,f,2320,126,損,con,[],30,No,0,0,0,30,,3,Female,"粵語, 普通話, 英文",,65464f3622cb15acd453c658,Chrome,Windows,1440,2560,1.8415666666666664,
14,condition1,1,讚,讚,f,1696,127,成,phon-sem,[],30,No,0,0,0,30,,3,Female,"粵語, 普通話, 英文",,65464f3622cb15acd453c658,Chrome,Windows,1440,2560,1.8415666666666664,
14,condition1,2,簡,單,j,1744,128,單,sem-sem,[],30,No,0,0,0,30,,3,Female,"粵語, 普通話, 英文",,65464f3622cb15acd453c658,Chrome,Windows,1440,2560,1.8415666666666664,
14,condition1,2,線,權,j,1624,129,權,phon-phon,[],30,No,0,0,0,30,,3,Female,"粵語, 普通話, 英文",,65464f3622cb15acd453c658,Chrome,Windows,1440,2560,1.8415666666666664,
14,condition1,2,摺,席,j,1736,130,席,phon-phon,[],30,No,0,0,0,30,,3,Female,"粵語, 普通話, 英文",,65464f3622cb15acd453c658,Chrome,Windows,1440,2560,1.8415666666666664,
14,condition1,1,億,億,f,1736,131,義,phon-sem,[],30,No,0,0,0,30,,3,Female,"粵語, 普通話, 英文",,65464f3622cb15acd453c658,Chrome,Windows,1440,2560,1.8415666666666664,
14,condition1,1,轄,轄,f,1776,132,嗨,phon-phon,[],30,No,0,0,0,30,,3,Female,"粵語, 普通話, 英文",,65464f3622cb15acd453c658,Chrome,Windows,1440,2560,1.8415666666666664,
14,condition1,1,踝,踝,f,1808,133,裹,phon-phon,[],30,No,0,0,0,30,,3,Female,"粵語, 普通話, 英文",,65464f3622cb15acd453c658,Chrome,Windows,1440,2560,1.8415666666666664,
14,condition1,1,村,村,f,2288,134,即,con,[],30,No,0,0,0,30,,3,Female,"粵語, 普通話, 英文",,65464f3622cb15acd453c658,Chrome,Windows,1440,2560,1.8415666666666664,
14,condition1,2,殖,游,j,1696,135,游,con,[],30,No,0,0,0,30,,3,Female,"粵語, 普通話, 英文",,65464f3622cb15acd453c658,Chrome,Windows,1440,2560,1.8415666666666664,
14,condition1,1,晚,晚,f,2016,136,勉,phon-phon,[],30,No,0,0,0,30,,3,Female,"粵語, 普通話, 英文",,65464f3622cb15acd453c658,Chrome,Windows,1440,2560,1.8415666666666664,
14,condition1,2,移,勝,j,1936,137,勝,con,[],30,No,0,0,0,30,,3,Female,"粵語, 普通話, 英文",,65464f3622cb15acd453c658,Chrome,Windows,1440,2560,1.8415666666666664,
14,condition1,2,很,車,j,1928,138,車,con,[],30,No,0,0,0,30,,3,Female,"粵語, 普通話, 英文",,65464f3622cb15acd453c658,Chrome,Windows,1440,2560,1.8415666666666664,
14,condition1,1,据,据,f,1760,139,住,phon-sem,[],30,No,0,0,0,30,,3,Female,"粵語, 普通話, 英文",,65464f3622cb15acd453c658,Chrome,Windows,1440,2560,1.8415666666666664,
14,condition1,1,迅,迅,f,1704,140,速,sem-sem,[],30,No,0,0,0,30,,3,Female,"粵語, 普通話, 英文",,65464f3622cb15acd453c658,Chrome,Windows,1440,2560,1.8415666666666664,
14,condition1,1,氾,氾,f,1768,141,濫,sem-sem,[],30,No,0,0,0,30,,3,Female,"粵語, 普通話, 英文",,65464f3622cb15acd453c658,Chrome,Windows,1440,2560,1.8415666666666664,
14,condition1,1,締,締,f,1696,142,國,phon-sem,[],30,No,0,0,0,30,,3,Female,"粵語, 普通話, 英文",,65464f3622cb15acd453c658,Chrome,Windows,1440,2560,1.8415666666666664,
14,condition1,1,提,提,f,1840,143,市,phon-phon,[],30,No,0,0,0,30,,3,Female,"粵語, 普通話, 英文",,65464f3622cb15acd453c658,Chrome,Windows,1440,2560,1.8415666666666664,
14,condition1,1,遵,遵,f,1744,144,重,phon-sem,[],30,No,0,0,0,30,,3,Female,"粵語, 普通話, 英文",,65464f3622cb15acd453c658,Chrome,Windows,1440,2560,1.8415666666666664,
14,condition1,2,檔,諾,j,1720,145,諾,con,[],30,No,0,0,0,30,,3,Female,"粵語, 普通話, 英文",,65464f3622cb15acd453c658,Chrome,Windows,1440,2560,1.8415666666666664,
14,condition1,1,仗,仗,f,1696,146,夫,phon-sem,[],30,No,0,0,0,30,,3,Female,"粵語, 普通話, 英文",,65464f3622cb15acd453c658,Chrome,Windows,1440,2560,1.8415666666666664,
14,condition1,2,剪,刀,j,1808,147,刀,sem-sem,[],30,No,0,0,0,30,,3,Female,"粵語, 普通話, 英文",,65464f3622cb15acd453c658,Chrome,Windows,1440,2560,1.8415666666666664,
14,condition1,2,泳,遠,j,1792,148,遠,phon-sem,[],30,No,0,0,0,30,,3,Female,"粵語, 普通話, 英文",,65464f3622cb15acd453c658,Chrome,Windows,1440,2560,1.8415666666666664,
14,condition1,2,擁,賞,j,1992,149,賞,con,[],30,No,0,0,0,30,,3,Female,"粵語, 普通話, 英文",,65464f3622cb15acd453c658,Chrome,Windows,1440,2560,1.8415666666666664,
14,condition1,1,囚,囚,f,1768,150,犯,sem-sem,[],30,No,0,0,0,30,,3,Female,"粵語, 普通話, 英文",,65464f3622cb15acd453c658,Chrome,Windows,1440,2560,1.8415666666666664,
14,condition1,2,普,通,j,2029,152,通,sem-sem,[],30,No,0,0,0,30,,3,Female,"粵語, 普通話, 英文",,65464f3622cb15acd453c658,Chrome,Windows,1440,2560,1.8415666666666664,
14,condition1,1,擅,擅,f,1720,153,廉,con,[],30,No,0,0,0,30,,3,Female,"粵語, 普通話, 英文",,65464f3622cb15acd453c658,Chrome,Windows,1440,2560,1.8415666666666664,
14,condition1,2,暗,因,j,1656,154,因,phon-phon,[],30,No,0,0,0,30,,3,Female,"粵語, 普通話, 英文",,65464f3622cb15acd453c658,Chrome,Windows,1440,2560,1.8415666666666664,
14,condition1,2,遲,夕,j,1784,155,夕,phon-phon,[],30,No,0,0,0,30,,3,Female,"粵語, 普通話, 英文",,65464f3622cb15acd453c658,Chrome,Windows,1440,2560,1.8415666666666664,
14,condition1,1,畢,畢,f,1688,156,業,sem-sem,[],30,No,0,0,0,30,,3,Female,"粵語, 普通話, 英文",,65464f3622cb15acd453c658,Chrome,Windows,1440,2560,1.8415666666666664,
14,condition1,1,準,準,f,1840,157,腦,con,[],30,No,0,0,0,30,,3,Female,"粵語, 普通話, 英文",,65464f3622cb15acd453c658,Chrome,Windows,1440,2560,1.8415666666666664,
14,condition1,2,詞,絲,j,1584,158,絲,phon-phon,[],30,No,0,0,0,30,,3,Female,"粵語, 普通話, 英文",,65464f3622cb15acd453c658,Chrome,Windows,1440,2560,1.8415666666666664,
14,condition1,1,陀,陀,f,1680,159,他,phon-phon,[],30,No,0,0,0,30,,3,Female,"粵語, 普通話, 英文",,65464f3622cb15acd453c658,Chrome,Windows,1440,2560,1.8415666666666664,
14,condition1,2,峽,述,j,2008,160,述,con,[],30,No,0,0,0,30,,3,Female,"粵語, 普通話, 英文",,65464f3622cb15acd453c658,Chrome,Windows,1440,2560,1.8415666666666664,
14,condition1,2,滑,谷,j,1880,161,谷,phon-phon,[],30,No,0,0,0,30,,3,Female,"粵語, 普通話, 英文",,65464f3622cb15acd453c658,Chrome,Windows,1440,2560,1.8415666666666664,
14,condition1,1,槌,槌,f,1928,162,錐,phon-phon,[],30,No,0,0,0,30,,3,Female,"粵語, 普通話, 英文",,65464f3622cb15acd453c658,Chrome,Windows,1440,2560,1.8415666666666664,
14,condition1,2,勵,害,j,1896,163,害,phon-sem,[],30,No,0,0,0,30,,3,Female,"粵語, 普通話, 英文",,65464f3622cb15acd453c658,Chrome,Windows,1440,2560,1.8415666666666664,
14,condition1,1,垃,垃,f,1824,164,圾,sem-sem,[],30,No,0,0,0,30,,3,Female,"粵語, 普通話, 英文",,65464f3622cb15acd453c658,Chrome,Windows,1440,2560,1.8415666666666664,
14,condition1,1,婚,婚,f,1712,165,迷,phon-sem,[],30,No,0,0,0,30,,3,Female,"粵語, 普通話, 英文",,65464f3622cb15acd453c658,Chrome,Windows,1440,2560,1.8415666666666664,
14,condition1,2,紛,析,j,1896,166,析,phon-sem,[],30,No,0,0,0,30,,3,Female,"粵語, 普通話, 英文",,65464f3622cb15acd453c658,Chrome,Windows,1440,2560,1.8415666666666664,
14,condition1,1,拯,拯,f,1768,167,救,sem-sem,[],30,No,0,0,0,30,,3,Female,"粵語, 普通話, 英文",,65464f3622cb15acd453c658,Chrome,Windows,1440,2560,1.8415666666666664,
14,condition1,1,擒,擒,f,1752,168,獸,phon-sem,[],30,No,0,0,0,30,,3,Female,"粵語, 普通話, 英文",,65464f3622cb15acd453c658,Chrome,Windows,1440,2560,1.8415666666666664,
14,condition1,1,楓,楓,f,1776,169,雨,phon-sem,[],30,No,0,0,0,30,,3,Female,"粵語, 普通話, 英文",,65464f3622cb15acd453c658,Chrome,Windows,1440,2560,1.8415666666666664,
14,condition1,1,松,松,f,1752,170,工,phon-phon,[],30,No,0,0,0,30,,3,Female,"粵語, 普通話, 英文",,65464f3622cb15acd453c658,Chrome,Windows,1440,2560,1.8415666666666664,
14,condition1,2,漢,隔,j,1800,171,隔,con,[],30,No,0,0,0,30,,3,Female,"粵語, 普通話, 英文",,65464f3622cb15acd453c658,Chrome,Windows,1440,2560,1.8415666666666664,
14,condition1,1,虐,虐,f,1720,172,待,sem-sem,[],30,No,0,0,0,30,,3,Female,"粵語, 普通話, 英文",,65464f3622cb15acd453c658,Chrome,Windows,1440,2560,1.8415666666666664,
14,condition1,1,附,附,f,1648,173,出,phon-sem,[],30,No,0,0,0,30,,3,Female,"粵語, 普通話, 英文",,65464f3622cb15acd453c658,Chrome,Windows,1440,2560,1.8415666666666664,
14,condition1,1,喧,喧,f,1840,174,佈,phon-sem,[],30,No,0,0,0,30,,3,Female,"粵語, 普通話, 英文",,65464f3622cb15acd453c658,Chrome,Windows,1440,2560,1.8415666666666664,
14,condition1,2,廁,所,j,1608,175,所,sem-sem,[],30,No,0,0,0,30,,3,Female,"粵語, 普通話, 英文",,65464f3622cb15acd453c658,Chrome,Windows,1440,2560,1.8415666666666664,
14,condition1,1,擾,擾,f,1720,176,悠,phon-phon,[],30,No,0,0,0,30,,3,Female,"粵語, 普通話, 英文",,65464f3622cb15acd453c658,Chrome,Windows,1440,2560,1.8415666666666664,
14,condition1,2,紐,醜,j,1672,177,醜,phon-phon,[],30,No,0,0,0,30,,3,Female,"粵語, 普通話, 英文",,65464f3622cb15acd453c658,Chrome,Windows,1440,2560,1.8415666666666664,
14,condition1,1,讀,讀,f,1720,178,邁,phon-phon,[],30,No,0,0,0,30,,3,Female,"粵語, 普通話, 英文",,65464f3622cb15acd453c658,Chrome,Windows,1440,2560,1.8415666666666664,
14,condition1,2,饑,餓,j,1760,179,餓,sem-sem,[],30,No,0,0,0,30,,3,Female,"粵語, 普通話, 英文",,65464f3622cb15acd453c658,Chrome,Windows,1440,2560,1.8415666666666664,
14,condition1,1,稻,稻,f,1624,180,米,sem-sem,[],30,No,0,0,0,30,,3,Female,"粵語, 普通話, 英文",,65464f3622cb15acd453c658,Chrome,Windows,1440,2560,1.8415666666666664,
14,condition1,1,懈,懈,f,1848,181,姐,phon-phon,[],30,No,0,0,0,30,,3,Female,"粵語, 普通話, 英文",,65464f3622cb15acd453c658,Chrome,Windows,1440,2560,1.8415666666666664,
14,condition1,1,胸,胸,f,1640,182,奴,phon-sem,[],30,No,0,0,0,30,,3,Female,"粵語, 普通話, 英文",,65464f3622cb15acd453c658,Chrome,Windows,1440,2560,1.8415666666666664,
14,condition1,2,個,故,j,1672,183,故,phon-phon,[],30,No,0,0,0,30,,3,Female,"粵語, 普通話, 英文",,65464f3622cb15acd453c658,Chrome,Windows,1440,2560,1.8415666666666664,
14,condition1,2,綜,教,j,1680,184,教,phon-sem,[],30,No,0,0,0,30,,3,Female,"粵語, 普通話, 英文",,65464f3622cb15acd453c658,Chrome,Windows,1440,2560,1.8415666666666664,
14,condition1,2,騙,貶,j,1680,185,貶,phon-phon,[],30,No,0,0,0,30,,3,Female,"粵語, 普通話, 英文",,65464f3622cb15acd453c658,Chrome,Windows,1440,2560,1.8415666666666664,
14,condition1,1,謝,謝,f,1816,186,社,phon-phon,[],30,No,0,0,0,30,,3,Female,"粵語, 普通話, 英文",,65464f3622cb15acd453c658,Chrome,Windows,1440,2560,1.8415666666666664,
14,condition1,1,誌,誌,f,1784,187,願,phon-sem,[],30,No,0,0,0,30,,3,Female,"粵語, 普通話, 英文",,65464f3622cb15acd453c658,Chrome,Windows,1440,2560,1.8415666666666664,
14,condition1,1,佑,佑,f,1744,188,左,phon-sem,[],30,No,0,0,0,30,,3,Female,"粵語, 普通話, 英文",,65464f3622cb15acd453c658,Chrome,Windows,1440,2560,1.8415666666666664,
14,condition1,2,危,險,j,1608,189,險,sem-sem,[],30,No,0,0,0,30,,3,Female,"粵語, 普通話, 英文",,65464f3622cb15acd453c658,Chrome,Windows,1440,2560,1.8415666666666664,
14,condition1,1,泥,泥,f,1760,190,姑,phon-sem,[],30,No,0,0,0,30,,3,Female,"粵語, 普通話, 英文",,65464f3622cb15acd453c658,Chrome,Windows,1440,2560,1.8415666666666664,
30,condition1,2,拒,大,j,9404,8,大,phon-sem,[],63,No,25,25,25,25,none,4,Female,普通話,none,5e8b32ec2c33ae7f20a0b401,Chrome,Windows,720,1280,3.120416666666667,
30,condition1,1,億,億,f,2803,9,義,phon-sem,[],63,No,25,25,25,25,none,4,Female,普通話,none,5e8b32ec2c33ae7f20a0b401,Chrome,Windows,720,1280,3.120416666666667,
30,condition1,1,跑,跑,f,2105,10,剝,phon-phon,[],63,No,25,25,25,25,none,4,Female,普通話,none,5e8b32ec2c33ae7f20a0b401,Chrome,Windows,720,1280,3.120416666666667,
30,condition1,2,普,通,j,1873,11,通,sem-sem,[],63,No,25,25,25,25,none,4,Female,普通話,none,5e8b32ec2c33ae7f20a0b401,Chrome,Windows,720,1280,3.120416666666667,
30,condition1,2,傢,人,f,2138,12,人,phon-sem,[],63,No,25,25,25,25,none,4,Female,普通話,none,5e8b32ec2c33ae7f20a0b401,Chrome,Windows,720,1280,3.120416666666667,
30,condition1,2,誌,願,j,3414,13,願,phon-sem,[],63,No,25,25,25,25,none,4,Female,普通話,none,5e8b32ec2c33ae7f20a0b401,Chrome,Windows,720,1280,3.120416666666667,
30,condition1,1,擺,擺,f,2260,14,霸,phon-phon,[],63,No,25,25,25,25,none,4,Female,普通話,none,5e8b32ec2c33ae7f20a0b401,Chrome,Windows,720,1280,3.120416666666667,
30,condition1,2,紛,析,f,5039,15,析,phon-sem,[],63,No,25,25,25,25,none,4,Female,普通話,none,5e8b32ec2c33ae7f20a0b401,Chrome,Windows,720,1280,3.120416666666667,
30,condition1,2,漢,隔,j,2256,16,隔,con,[],63,No,25,25,25,25,none,4,Female,普通話,none,5e8b32ec2c33ae7f20a0b401,Chrome,Windows,720,1280,3.120416666666667,
30,condition1,2,那,飛,j,2255,17,飛,con,[],63,No,25,25,25,25,none,4,Female,普通話,none,5e8b32ec2c33ae7f20a0b401,Chrome,Windows,720,1280,3.120416666666667,
30,condition1,2,附,出,j,1845,18,出,phon-sem,[],63,No,25,25,25,25,none,4,Female,普通話,none,5e8b32ec2c33ae7f20a0b401,Chrome,Windows,720,1280,3.120416666666667,
30,condition1,2,手,腳,j,4056,19,腳,sem-sem,[],63,No,25,25,25,25,none,4,Female,普通話,none,5e8b32ec2c33ae7f20a0b401,Chrome,Windows,720,1280,3.120416666666667,
30,condition1,2,仗,夫,j,2994,20,夫,phon-sem,[],63,No,25,25,25,25,none,4,Female,普通話,none,5e8b32ec2c33ae7f20a0b401,Chrome,Windows,720,1280,3.120416666666667,
30,condition1,2,肥,胖,j,1940,21,胖,sem-sem,[],63,No,25,25,25,25,none,4,Female,普通話,none,5e8b32ec2c33ae7f20a0b401,Chrome,Windows,720,1280,3.120416666666667,
30,condition1,2,暗,因,j,1820,22,因,phon-phon,[],63,No,25,25,25,25,none,4,Female,普通話,none,5e8b32ec2c33ae7f20a0b401,Chrome,Windows,720,1280,3.120416666666667,
30,condition1,2,針,線,f,2008,23,線,sem-sem,[],63,No,25,25,25,25,none,4,Female,普通話,none,5e8b32ec2c33ae7f20a0b401,Chrome,Windows,720,1280,3.120416666666667,
30,condition1,1,矚,矚,f,1948,24,數,phon-phon,[],63,No,25,25,25,25,none,4,Female,普通話,none,5e8b32ec2c33ae7f20a0b401,Chrome,Windows,720,1280,3.120416666666667,
30,condition1,1,擅,擅,f,3379,25,廉,con,[],63,No,25,25,25,25,none,4,Female,普通話,none,5e8b32ec2c33ae7f20a0b401,Chrome,Windows,720,1280,3.120416666666667,
30,condition1,2,盪,棍,f,2200,26,棍,con,[],63,No,25,25,25,25,none,4,Female,普通話,none,5e8b32ec2c33ae7f20a0b401,Chrome,Windows,720,1280,3.120416666666667,
30,condition1,1,極,極,f,2440,27,損,con,[],63,No,25,25,25,25,none,4,Female,普通話,none,5e8b32ec2c33ae7f20a0b401,Chrome,Windows,720,1280,3.120416666666667,
30,condition1,1,危,危,f,2392,28,險,sem-sem,[],63,No,25,25,25,25,none,4,Female,普通話,none,5e8b32ec2c33ae7f20a0b401,Chrome,Windows,720,1280,3.120416666666667,
30,condition1,1,余,余,f,2085,29,別,con,[],63,No,25,25,25,25,none,4,Female,普通話,none,5e8b32ec2c33ae7f20a0b401,Chrome,Windows,720,1280,3.120416666666667,
30,condition1,2,擾,悠,f,1746,30,悠,phon-phon,[],63,No,25,25,25,25,none,4,Female,普通話,none,5e8b32ec2c33ae7f20a0b401,Chrome,Windows,720,1280,3.120416666666667,
30,condition1,1,漆,漆,f,2026,31,端,con,[],63,No,25,25,25,25,none,4,Female,普通話,none,5e8b32ec2c33ae7f20a0b401,Chrome,Windows,720,1280,3.120416666666667,
30,condition1,1,廁,廁,f,1882,32,所,sem-sem,[],63,No,25,25,25,25,none,4,Female,普通話,none,5e8b32ec2c33ae7f20a0b401,Chrome,Windows,720,1280,3.120416666666667,
30,condition1,2,勵,害,j,2034,33,害,phon-sem,[],63,No,25,25,25,25,none,4,Female,普通話,none,5e8b32ec2c33ae7f20a0b401,Chrome,Windows,720,1280,3.120416666666667,
30,condition1,2,滑,谷,j,2227,34,谷,phon-phon,[],63,No,25,25,25,25,none,4,Female,普通話,none,5e8b32ec2c33ae7f20a0b401,Chrome,Windows,720,1280,3.120416666666667,
30,condition1,2,糖,鄰,f,1998,35,鄰,con,[],63,No,25,25,25,25,none,4,Female,普通話,none,5e8b32ec2c33ae7f20a0b401,Chrome,Windows,720,1280,3.120416666666667,
30,condition1,2,炸,查,j,1858,36,查,con,[],63,No,25,25,25,25,none,4,Female,普通話,none,5e8b32ec2c33ae7f20a0b401,Chrome,Windows,720,1280,3.120416666666667,
30,condition1,2,轄,嗨,f,2761,37,嗨,phon-phon,[],63,No,25,25,25,25,none,4,Female,普通話,none,5e8b32ec2c33ae7f20a0b401,Chrome,Windows,720,1280,3.120416666666667,
30,condition1,2,讀,邁,f,1887,38,邁,phon-phon,[],63,No,25,25,25,25,none,4,Female,普通話,none,5e8b32ec2c33ae7f20a0b401,Chrome,Windows,720,1280,3.120416666666667,
30,condition1,1,擁,擁,f,1898,39,賞,con,[],63,No,25,25,25,25,none,4,Female,普通話,none,5e8b32ec2c33ae7f20a0b401,Chrome,Windows,720,1280,3.120416666666667,
30,condition1,2,羨,慕,j,1787,40,慕,sem-sem,[],63,No,25,25,25,25,none,4,Female,普通話,none,5e8b32ec2c33ae7f20a0b401,Chrome,Windows,720,1280,3.120416666666667,
30,condition1,2,峽,述,j,1797,41,述,con,[],63,No,25,25,25,25,none,4,Female,普通話,none,5e8b32ec2c33ae7f20a0b401,Chrome,Windows,720,1280,3.120416666666667,
30,condition1,2,烤,試,j,1710,42,試,phon-sem,[],63,No,25,25,25,25,none,4,Female,普通話,none,5e8b32ec2c33ae7f20a0b401,Chrome,Windows,720,1280,3.120416666666667,
30,condition1,2,帳,煮,f,2095,43,煮,con,[],63,No,25,25,25,25,none,4,Female,普通話,none,5e8b32ec2c33ae7f20a0b401,Chrome,Windows,720,1280,3.120416666666667,
30,condition1,2,形,再,j,1719,44,再,con,[],63,No,25,25,25,25,none,4,Female,普通話,none,5e8b32ec2c33ae7f20a0b401,Chrome,Windows,720,1280,3.120416666666667,
30,condition1,2,槌,錐,j,1707,45,錐,phon-phon,[],63,No,25,25,25,25,none,4,Female,普通話,none,5e8b32ec2c33ae7f20a0b401,Chrome,Windows,720,1280,3.120416666666667,
30,condition1,1,摺,摺,f,1773,46,席,phon-phon,[],63,No,25,25,25,25,none,4,Female,普通話,none,5e8b32ec2c33ae7f20a0b401,Chrome,Windows,720,1280,3.120416666666667,
30,condition1,2,棚,友,j,2310,47,友,phon-sem,[],63,No,25,25,25,25,none,4,Female,普通話,none,5e8b32ec2c33ae7f20a0b401,Chrome,Windows,720,1280,3.120416666666667,
30,condition1,2,遂,喝,j,1815,48,喝,con,[],63,No,25,25,25,25,none,4,Female,普通話,none,5e8b32ec2c33ae7f20a0b401,Chrome,Windows,720,1280,3.120416666666667,
30,condition1,1,餵,餵,f,2188,49,懼,phon-sem,[],63,No,25,25,25,25,none,4,Female,普通話,none,5e8b32ec2c33ae7f20a0b401,Chrome,Windows,720,1280,3.120416666666667,
30,condition1,1,遲,遲,f,2063,50,夕,phon-phon,[],63,No,25,25,25,25,none,4,Female,普通話,none,5e8b32ec2c33ae7f20a0b401,Chrome,Windows,720,1280,3.120416666666667,
30,condition1,1,剪,剪,f,2442,52,刀,sem-sem,[],63,No,25,25,25,25,none,4,Female,普通話,none,5e8b32ec2c33ae7f20a0b401,Chrome,Windows,720,1280,3.120416666666667,
30,condition1,1,轎,轎,f,2123,53,瞧,phon-phon,[],63,No,25,25,25,25,none,4,Female,普通話,none,5e8b32ec2c33ae7f20a0b401,Chrome,Windows,720,1280,3.120416666666667,
30,condition1,2,划,船,j,3110,54,船,sem-sem,[],63,No,25,25,25,25,none,4,Female,普通話,none,5e8b32ec2c33ae7f20a0b401,Chrome,Windows,720,1280,3.120416666666667,
30,condition1,2,讚,成,j,2129,55,成,phon-sem,[],63,No,25,25,25,25,none,4,Female,普通話,none,5e8b32ec2c33ae7f20a0b401,Chrome,Windows,720,1280,3.120416666666667,
30,condition1,1,緊,緊,f,1817,56,張,sem-sem,[],63,No,25,25,25,25,none,4,Female,普通話,none,5e8b32ec2c33ae7f20a0b401,Chrome,Windows,720,1280,3.120416666666667,
30,condition1,2,克,服,f,2164,57,服,sem-sem,[],63,No,25,25,25,25,none,4,Female,普通話,none,5e8b32ec2c33ae7f20a0b401,Chrome,Windows,720,1280,3.120416666666667,
30,condition1,2,戚,唐,j,1767,58,唐,con,[],63,No,25,25,25,25,none,4,Female,普通話,none,5e8b32ec2c33ae7f20a0b401,Chrome,Windows,720,1280,3.120416666666667,
30,condition1,2,輾,斬,f,2664,59,斬,phon-phon,[],63,No,25,25,25,25,none,4,Female,普通話,none,5e8b32ec2c33ae7f20a0b401,Chrome,Windows,720,1280,3.120416666666667,
30,condition1,2,提,市,f,1898,60,市,phon-phon,[],63,No,25,25,25,25,none,4,Female,普通話,none,5e8b32ec2c33ae7f20a0b401,Chrome,Windows,720,1280,3.120416666666667,
30,condition1,2,楓,雨,f,2403,61,雨,phon-sem,[],63,No,25,25,25,25,none,4,Female,普通話,none,5e8b32ec2c33ae7f20a0b401,Chrome,Windows,720,1280,3.120416666666667,
30,condition1,2,懈,姐,j,1678,62,姐,phon-phon,[],63,No,25,25,25,25,none,4,Female,普通話,none,5e8b32ec2c33ae7f20a0b401,Chrome,Windows,720,1280,3.120416666666667,
30,condition1,2,稀,望,j,1834,63,望,phon-sem,[],63,No,25,25,25,25,none,4,Female,普通話,none,5e8b32ec2c33ae7f20a0b401,Chrome,Windows,720,1280,3.120416666666667,
30,condition1,1,倖,倖,f,1927,64,福,phon-sem,[],63,No,25,25,25,25,none,4,Female,普通話,none,5e8b32ec2c33ae7f20a0b401,Chrome,Windows,720,1280,3.120416666666667,
30,condition1,1,殖,殖,f,2175,65,游,con,[],63,No,25,25,25,25,none,4,Female,普通話,none,5e8b32ec2c33ae7f20a0b401,Chrome,Windows,720,1280,3.120416666666667,
30,condition1,1,厭,厭,f,1771,66,惡,sem-sem,[],63,No,25,25,25,25,none,4,Female,普通話,none,5e8b32ec2c33ae7f20a0b401,Chrome,Windows,720,1280,3.120416666666667,
30,condition1,1,締,締,f,2029,67,國,phon-sem,[],63,No,25,25,25,25,none,4,Female,普通話,none,5e8b32ec2c33ae7f20a0b401,Chrome,Windows,720,1280,3.120416666666667,
30,condition1,1,叫,叫,f,2301,68,六,con,[],63,No,25,25,25,25,none,4,Female,普通話,none,5e8b32ec2c33ae7f20a0b401,Chrome,Windows,720,1280,3.120416666666667,
30,condition1,2,盔,甲,j,2021,69,甲,sem-sem,[],63,No,25,25,25,25,none,4,Female,普通話,none,5e8b32ec2c33ae7f20a0b401,Chrome,Windows,720,1280,3.120416666666667,
30,condition1,1,程,程,f,2095,70,現,phon-sem,[],63,No,25,25,25,25,none,4,Female,普通話,none,5e8b32ec2c33ae7f20a0b401,Chrome,Windows,720,1280,3.120416666666667,
30,condition1,1,稻,稻,f,1888,71,米,sem-sem,[],63,No,25,25,25,25,none,4,Female,普通話,none,5e8b32ec2c33ae7f20a0b401,Chrome,Windows,720,1280,3.120416666666667,
30,condition1,2,梯,帝,f,1745,72,帝,phon-phon,[],63,No,25,25,25,25,none,4,Female,普通話,none,5e8b32ec2c33ae7f20a0b401,Chrome,Windows,720,1280,3.120416666666667,
30,condition1,1,汐,汐,f,1834,73,陽,phon-sem,[],63,No,25,25,25,25,none,4,Female,普通話,none,5e8b32ec2c33ae7f20a0b401,Chrome,Windows,720,1280,3.120416666666667,
30,condition1,2,離,開,j,2043,74,開,sem-sem,[],63,No,25,25,25,25,none,4,Female,普通話,none,5e8b32ec2c33ae7f20a0b401,Chrome,Windows,720,1280,3.120416666666667,
30,condition1,2,泥,姑,j,1755,75,姑,phon-sem,[],63,No,25,25,25,25,none,4,Female,普通話,none,5e8b32ec2c33ae7f20a0b401,Chrome,Windows,720,1280,3.120416666666667,
30,condition1,2,根,候,j,2262,76,候,con,[],63,No,25,25,25,25,none,4,Female,普通話,none,5e8b32ec2c33ae7f20a0b401,Chrome,Windows,720,1280,3.120416666666667,
30,condition1,2,簡,單,j,2663,77,單,sem-sem,[],63,No,25,25,25,25,none,4,Female,普通話,none,5e8b32ec2c33ae7f20a0b401,Chrome,Windows,720,1280,3.120416666666667,
30,condition1,1,搔,搔,f,2210,78,癢,sem-sem,[],63,No,25,25,25,25,none,4,Female,普通話,none,5e8b32ec2c33ae7f20a0b401,Chrome,Windows,720,1280,3.120416666666667,
30,condition1,1,棋,棋,f,1956,79,實,phon-sem,[],63,No,25,25,25,25,none,4,Female,普通話,none,5e8b32ec2c33ae7f20a0b401,Chrome,Windows,720,1280,3.120416666666667,
30,condition1,1,嬰,嬰,f,1758,80,兒,sem-sem,[],63,No,25,25,25,25,none,4,Female,普通話,none,5e8b32ec2c33ae7f20a0b401,Chrome,Windows,720,1280,3.120416666666667,
30,condition1,2,踝,裹,f,2206,81,裹,phon-phon,[],63,No,25,25,25,25,none,4,Female,普通話,none,5e8b32ec2c33ae7f20a0b401,Chrome,Windows,720,1280,3.120416666666667,
30,condition1,2,虐,待,f,2071,82,待,sem-sem,[],63,No,25,25,25,25,none,4,Female,普通話,none,5e8b32ec2c33ae7f20a0b401,Chrome,Windows,720,1280,3.120416666666667,
30,condition1,1,板,板,j,2953,83,翻,phon-phon,[],63,No,25,25,25,25,none,4,Female,普通話,none,5e8b32ec2c33ae7f20a0b401,Chrome,Windows,720,1280,3.120416666666667,
30,condition1,2,健,立,f,2335,84,立,phon-sem,[],63,No,25,25,25,25,none,4,Female,普通話,none,5e8b32ec2c33ae7f20a0b401,Chrome,Windows,720,1280,3.120416666666667,
30,condition1,2,氾,濫,f,2014,85,濫,sem-sem,[],63,No,25,25,25,25,none,4,Female,普通話,none,5e8b32ec2c33ae7f20a0b401,Chrome,Windows,720,1280,3.120416666666667,
30,condition1,1,銀,銀,f,2085,86,蓋,con,[],63,No,25,25,25,25,none,4,Female,普通話,none,5e8b32ec2c33ae7f20a0b401,Chrome,Windows,720,1280,3.120416666666667,
30,condition1,2,迅,速,j,2016,87,速,sem-sem,[],63,No,25,25,25,25,none,4,Female,普通話,none,5e8b32ec2c33ae7f20a0b401,Chrome,Windows,720,1280,3.120416666666667,
30,condition1,1,黑,黑,f,2131,88,白,sem-sem,[],63,No,25,25,25,25,none,4,Female,普通話,none,5e8b32ec2c33ae7f20a0b401,Chrome,Windows,720,1280,3.120416666666667,
30,condition1,1,準,準,f,2073,89,腦,con,[],63,No,25,25,25,25,none,4,Female,普通話,none,5e8b32ec2c33ae7f20a0b401,Chrome,Windows,720,1280,3.120416666666667,
30,condition1,2,首,俊,j,2224,90,俊,con,[],63,No,25,25,25,25,none,4,Female,普通話,none,5e8b32ec2c33ae7f20a0b401,Chrome,Windows,720,1280,3.120416666666667,
30,condition1,1,婚,婚,f,1894,91,迷,phon-sem,[],63,No,25,25,25,25,none,4,Female,普通話,none,5e8b32ec2c33ae7f20a0b401,Chrome,Windows,720,1280,3.120416666666667,
30,condition1,1,攤,攤,f,2238,92,南,phon-phon,[],63,No,25,25,25,25,none,4,Female,普通話,none,5e8b32ec2c33ae7f20a0b401,Chrome,Windows,720,1280,3.120416666666667,
30,condition1,2,饑,餓,j,1724,93,餓,sem-sem,[],63,No,25,25,25,25,none,4,Female,普通話,none,5e8b32ec2c33ae7f20a0b401,Chrome,Windows,720,1280,3.120416666666667,
30,condition1,2,縮,素,j,2393,94,素,phon-phon,[],63,No,25,25,25,25,none,4,Female,普通話,none,5e8b32ec2c33ae7f20a0b401,Chrome,Windows,720,1280,3.120416666666667,
30,condition1,1,冰,冰,f,2465,95,冷,sem-sem,[],63,No,25,25,25,25,none,4,Female,普通話,none,5e8b32ec2c33ae7f20a0b401,Chrome,Windows,720,1280,3.120416666666667,
30,condition1,2,囚,犯,j,2246,96,犯,sem-sem,[],63,No,25,25,25,25,none,4,Female,普通話,none,5e8b32ec2c33ae7f20a0b401,Chrome,Windows,720,1280,3.120416666666667,
30,condition1,1,線,線,j,4209,97,權,phon-phon,[],63,No,25,25,25,25,none,4,Female,普通話,none,5e8b32ec2c33ae7f20a0b401,Chrome,Windows,720,1280,3.120416666666667,
30,condition1,1,晚,晚,f,2562,98,勉,phon-phon,[],63,No,25,25,25,25,none,4,Female,普通話,none,5e8b32ec2c33ae7f20a0b401,Chrome,Windows,720,1280,3.120416666666667,
30,condition1,1,濃,濃,f,1807,99,田,phon-sem,[],63,No,25,25,25,25,none,4,Female,普通話,none,5e8b32ec2c33ae7f20a0b401,Chrome,Windows,720,1280,3.120416666666667,
30,condition1,1,輸,輸,f,1872,100,贏,sem-sem,[],63,No,25,25,25,25,none,4,Female,普通話,none,5e8b32ec2c33ae7f20a0b401,Chrome,Windows,720,1280,3.120416666666667,
30,condition1,1,奴,奴,f,1951,102,隸,sem-sem,[],63,No,25,25,25,25,none,4,Female,普通話,none,5e8b32ec2c33ae7f20a0b401,Chrome,Windows,720,1280,3.120416666666667,
30,condition1,2,掘,區,f,2208,103,區,phon-phon,[],63,No,25,25,25,25,none,4,Female,普通話,none,5e8b32ec2c33ae7f20a0b401,Chrome,Windows,720,1280,3.120416666666667,
30,condition1,2,耕,警,j,2242,104,警,phon-phon,[],63,No,25,25,25,25,none,4,Female,普通話,none,5e8b32ec2c33ae7f20a0b401,Chrome,Windows,720,1280,3.120416666666667,
30,condition1,2,司,進,j,2733,105,進,con,[],63,No,25,25,25,25,none,4,Female,普通話,none,5e8b32ec2c33ae7f20a0b401,Chrome,Windows,720,1280,3.120416666666667,
30,condition1,1,倪,倪,f,2239,106,而,phon-phon,[],63,No,25,25,25,25,none,4,Female,普通話,none,5e8b32ec2c33ae7f20a0b401,Chrome,Windows,720,1280,3.120416666666667,
30,condition1,1,宜,宜,f,2006,107,其,con,[],63,No,25,25,25,25,none,4,Female,普通話,none,5e8b32ec2c33ae7f20a0b401,Chrome,Windows,720,1280,3.120416666666667,
30,condition1,1,眠,眠,f,1886,108,務,con,[],63,No,25,25,25,25,none,4,Female,普通話,none,5e8b32ec2c33ae7f20a0b401,Chrome,Windows,720,1280,3.120416666666667,
30,condition1,2,源,因,j,1991,109,因,phon-sem,[],63,No,25,25,25,25,none,4,Female,普通話,none,5e8b32ec2c33ae7f20a0b401,Chrome,Windows,720,1280,3.120416666666667,
30,condition1,2,鏗,間,j,1942,110,間,phon-phon,[],63,No,25,25,25,25,none,4,Female,普通話,none,5e8b32ec2c33ae7f20a0b401,Chrome,Windows,720,1280,3.120416666666667,
30,condition1,2,燈,山,j,1854,111,山,phon-sem,[],63,No,25,25,25,25,none,4,Female,普通話,none,5e8b32ec2c33ae7f20a0b401,Chrome,Windows,720,1280,3.120416666666667,
30,condition1,2,綜,教,j,2489,112,教,phon-sem,[],63,No,25,25,25,25,none,4,Female,普通話,none,5e8b32ec2c33ae7f20a0b401,Chrome,Windows,720,1280,3.120416666666667,
30,condition1,1,溶,溶,f,2337,113,易,phon-sem,[],63,No,25,25,25,25,none,4,Female,普通話,none,5e8b32ec2c33ae7f20a0b401,Chrome,Windows,720,1280,3.120416666666667,
30,condition1,2,佑,左,j,1743,114,左,phon-sem,[],63,No,25,25,25,25,none,4,Female,普通話,none,5e8b32ec2c33ae7f20a0b401,Chrome,Windows,720,1280,3.120416666666667,
30,condition1,1,早,早,f,2002,115,晚,sem-sem,[],63,No,25,25,25,25,none,4,Female,普通話,none,5e8b32ec2c33ae7f20a0b401,Chrome,Windows,720,1280,3.120416666666667,
30,condition1,2,螺,類,j,2042,116,類,phon-phon,[],63,No,25,25,25,25,none,4,Female,普通話,none,5e8b32ec2c33ae7f20a0b401,Chrome,Windows,720,1280,3.120416666666667,
30,condition1,2,東,西,j,2018,117,西,sem-sem,[],63,No,25,25,25,25,none,4,Female,普通話,none,5e8b32ec2c33ae7f20a0b401,Chrome,Windows,720,1280,3.120416666666667,
30,condition1,2,尷,尬,j,2099,118,尬,sem-sem,[],63,No,25,25,25,25,none,4,Female,普通話,none,5e8b32ec2c33ae7f20a0b401,Chrome,Windows,720,1280,3.120416666666667,
30,condition1,2,儒,須,f,2103,119,須,phon-phon,[],63,No,25,25,25,25,none,4,Female,普通話,none,5e8b32ec2c33ae7f20a0b401,Chrome,Windows,720,1280,3.120416666666667,
30,condition1,2,煉,葉,j,2089,120,葉,con,[],63,No,25,25,25,25,none,4,Female,普通話,none,5e8b32ec2c33ae7f20a0b401,Chrome,Windows,720,1280,3.120416666666667,
30,condition1,2,邦,鎖,f,2034,121,鎖,con,[],63,No,25,25,25,25,none,4,Female,普通話,none,5e8b32ec2c33ae7f20a0b401,Chrome,Windows,720,1280,3.120416666666667,
30,condition1,2,据,住,j,1686,122,住,phon-sem,[],63,No,25,25,25,25,none,4,Female,普通話,none,5e8b32ec2c33ae7f20a0b401,Chrome,Windows,720,1280,3.120416666666667,
30,condition1,2,胸,奴,f,1981,123,奴,phon-sem,[],63,No,25,25,25,25,none,4,Female,普通話,none,5e8b32ec2c33ae7f20a0b401,Chrome,Windows,720,1280,3.120416666666667,
30,condition1,1,楣,楣,j,3030,124,毛,phon-sem,[],63,No,25,25,25,25,none,4,Female,普通話,none,5e8b32ec2c33ae7f20a0b401,Chrome,Windows,720,1280,3.120416666666667,
30,condition1,1,寫,寫,j,1858,125,字,sem-sem,[],63,No,25,25,25,25,none,4,Female,普通話,none,5e8b32ec2c33ae7f20a0b401,Chrome,Windows,720,1280,3.120416666666667,
30,condition1,1,陀,陀,f,2969,126,他,phon-phon,[],63,No,25,25,25,25,none,4,Female,普通話,none,5e8b32ec2c33ae7f20a0b401,Chrome,Windows,720,1280,3.120416666666667,
30,condition1,2,銘,字,j,1769,127,字,phon-sem,[],63,No,25,25,25,25,none,4,Female,普通話,none,5e8b32ec2c33ae7f20a0b401,Chrome,Windows,720,1280,3.120416666666667,
30,condition1,2,額,賽,j,2878,128,賽,con,[],63,No,25,25,25,25,none,4,Female,普通話,none,5e8b32ec2c33ae7f20a0b401,Chrome,Windows,720,1280,3.120416666666667,
30,condition1,1,陌,陌,f,2422,129,擺,phon-phon,[],63,No,25,25,25,25,none,4,Female,普通話,none,5e8b32ec2c33ae7f20a0b401,Chrome,Windows,720,1280,3.120416666666667,
30,condition1,2,移,勝,f,2071,130,勝,con,[],63,No,25,25,25,25,none,4,Female,普通話,none,5e8b32ec2c33ae7f20a0b401,Chrome,Windows,720,1280,3.120416666666667,
30,condition1,2,浪,涼,j,2386,131,涼,phon-phon,[],63,No,25,25,25,25,none,4,Female,普通話,none,5e8b32ec2c33ae7f20a0b401,Chrome,Windows,720,1280,3.120416666666667,
30,condition1,1,真,真,f,2124,132,實,sem-sem,[],63,No,25,25,25,25,none,4,Female,普通話,none,5e8b32ec2c33ae7f20a0b401,Chrome,Windows,720,1280,3.120416666666667,
30,condition1,2,湧,敢,f,2261,133,敢,phon-sem,[],63,No,25,25,25,25,none,4,Female,普通話,none,5e8b32ec2c33ae7f20a0b401,Chrome,Windows,720,1280,3.120416666666667,
30,condition1,1,個,個,f,2100,134,故,phon-phon,[],63,No,25,25,25,25,none,4,Female,普通話,none,5e8b32ec2c33ae7f20a0b401,Chrome,Windows,720,1280,3.120416666666667,
30,condition1,1,跟,跟,f,1927,135,董,con,[],63,No,25,25,25,25,none,4,Female,普通話,none,5e8b32ec2c33ae7f20a0b401,Chrome,Windows,720,1280,3.120416666666667,
30,condition1,1,城,城,f,2289,136,功,phon-sem,[],63,No,25,25,25,25,none,4,Female,普通話,none,5e8b32ec2c33ae7f20a0b401,Chrome,Windows,720,1280,3.120416666666667,
30,condition1,1,臭,臭,f,4241,137,堂,con,[],63,No,25,25,25,25,none,4,Female,普通話,none,5e8b32ec2c33ae7f20a0b401,Chrome,Windows,720,1280,3.120416666666667,
30,condition1,2,瑰,殺,f,2422,138,殺,con,[],63,No,25,25,25,25,none,4,Female,普通話,none,5e8b32ec2c33ae7f20a0b401,Chrome,Windows,720,1280,3.120416666666667,
30,condition1,1,喜,喜,f,1942,139,歡,sem-sem,[],63,No,25,25,25,25,none,4,Female,普通話,none,5e8b32ec2c33ae7f20a0b401,Chrome,Windows,720,1280,3.120416666666667,
30,condition1,1,詞,詞,f,2792,140,絲,phon-phon,[],63,No,25,25,25,25,none,4,Female,普通話,none,5e8b32ec2c33ae7f20a0b401,Chrome,Windows,720,1280,3.120416666666667,
30,condition1,1,壯,壯,f,2378,141,另,con,[],63,No,25,25,25,25,none,4,Female,普通話,none,5e8b32ec2c33ae7f20a0b401,Chrome,Windows,720,1280,3.120416666666667,
30,condition1,2,渡,量,j,1698,142,量,phon-sem,[],63,No,25,25,25,25,none,4,Female,普通話,none,5e8b32ec2c33ae7f20a0b401,Chrome,Windows,720,1280,3.120416666666667,
30,condition1,2,妹,喂,j,2087,143,喂,phon-phon,[],63,No,25,25,25,25,none,4,Female,普通話,none,5e8b32ec2c33ae7f20a0b401,Chrome,Windows,720,1280,3.120416666666667,
30,condition1,1,錶,錶,f,2237,144,示,phon-sem,[],63,No,25,25,25,25,none,4,Female,普通話,none,5e8b32ec2c33ae7f20a0b401,Chrome,Windows,720,1280,3.120416666666667,
30,condition1,1,審,審,f,2304,145,判,sem-sem,[],63,No,25,25,25,25,none,4,Female,普通話,none,5e8b32ec2c33ae7f20a0b401,Chrome,Windows,720,1280,3.120416666666667,
