workerid,proliferate.condition,correct_answer,prime,probeContent,response,rt,slide_number_in_experiment,target,trial_type,catch_trials,subject_information.age,subject_information.assess,subject_information.chinese_country_years,subject_information.chinese_family_years,subject_information.chinese_school_work_years_spoken,subject_information.chinese_school_work_years_written,subject_information.comments,subject_information.education,subject_information.gender,subject_information.otherLanguage,subject_information.problems,subject_information.prolific_ID,system.Browser,system.OS,system.screenH,system.screenW,time_in_minutes,error
5,condition1,2,餵,懼,j,2233,8,懼,phon-sem,[],31,No,25,25,19,19,暫無，謝謝您的邀請。,4,Male,漢語，英語，西班牙語,無,664db585355de70e17541e5a,Chrome,Windows,1080,1920,17.978566666666666,
5,condition1,2,眠,務,j,2181,9,務,con,[],31,No,25,25,19,19,暫無，謝謝您的邀請。,4,Male,漢語，英語，西班牙語,無,664db585355de70e17541e5a,Chrome,Windows,1080,1920,17.978566666666666,
5,condition1,1,城,城,f,2344,10,功,phon-sem,[],31,No,25,25,19,19,暫無，謝謝您的邀請。,4,Male,漢語，英語，西班牙語,無,664db585355de70e17541e5a,Chrome,Windows,1080,1920,17.978566666666666,
5,condition1,1,真,真,f,2201,11,實,sem-sem,[],31,No,25,25,19,19,暫無，謝謝您的邀請。,4,Male,漢語，英語，西班牙語,無,664db585355de70e17541e5a,Chrome,Windows,1080,1920,17.978566666666666,
5,condition1,2,孩,侵,j,2392,12,侵,con,[],31,No,25,25,19,19,暫無，謝謝您的邀請。,4,Male,漢語，英語，西班牙語,無,664db585355de70e17541e5a,Chrome,Windows,1080,1920,17.978566666666666,
5,condition1,2,詞,絲,j,2255,13,絲,phon-phon,[],31,No,25,25,19,19,暫無，謝謝您的邀請。,4,Male,漢語，英語，西班牙語,無,664db585355de70e17541e5a,Chrome,Windows,1080,1920,17.978566666666666,
5,condition1,1,壢,壢,f,2192,14,史,phon-sem,[],31,No,25,25,19,19,暫無，謝謝您的邀請。,4,Male,漢語，英語，西班牙語,無,664db585355de70e17541e5a,Chrome,Windows,1080,1920,17.978566666666666,
5,condition1,1,羨,羨,f,2487,15,慕,sem-sem,[],31,No,25,25,19,19,暫無，謝謝您的邀請。,4,Male,漢語，英語，西班牙語,無,664db585355de70e17541e5a,Chrome,Windows,1080,1920,17.978566666666666,
5,condition1,2,跟,董,j,2351,16,董,con,[],31,No,25,25,19,19,暫無，謝謝您的邀請。,4,Male,漢語，英語，西班牙語,無,664db585355de70e17541e5a,Chrome,Windows,1080,1920,17.978566666666666,
5,condition1,1,喧,喧,f,2351,17,佈,phon-sem,[],31,No,25,25,19,19,暫無，謝謝您的邀請。,4,Male,漢語，英語，西班牙語,無,664db585355de70e17541e5a,Chrome,Windows,1080,1920,17.978566666666666,
5,condition1,2,脆,微,j,2271,18,微,phon-phon,[],31,No,25,25,19,19,暫無，謝謝您的邀請。,4,Male,漢語，英語，西班牙語,無,664db585355de70e17541e5a,Chrome,Windows,1080,1920,17.978566666666666,
5,condition1,1,拒,拒,f,2200,19,大,phon-sem,[],31,No,25,25,19,19,暫無，謝謝您的邀請。,4,Male,漢語，英語，西班牙語,無,664db585355de70e17541e5a,Chrome,Windows,1080,1920,17.978566666666666,
5,condition1,1,憾,憾,f,2566,20,敢,phon-phon,[],31,No,25,25,19,19,暫無，謝謝您的邀請。,4,Male,漢語，英語，西班牙語,無,664db585355de70e17541e5a,Chrome,Windows,1080,1920,17.978566666666666,
5,condition1,2,汐,陽,f,2304,21,陽,phon-sem,[],31,No,25,25,19,19,暫無，謝謝您的邀請。,4,Male,漢語，英語，西班牙語,無,664db585355de70e17541e5a,Chrome,Windows,1080,1920,17.978566666666666,
5,condition1,2,板,翻,j,2142,22,翻,phon-phon,[],31,No,25,25,19,19,暫無，謝謝您的邀請。,4,Male,漢語，英語，西班牙語,無,664db585355de70e17541e5a,Chrome,Windows,1080,1920,17.978566666666666,
5,condition1,1,程,程,f,2432,23,現,phon-sem,[],31,No,25,25,19,19,暫無，謝謝您的邀請。,4,Male,漢語，英語，西班牙語,無,664db585355de70e17541e5a,Chrome,Windows,1080,1920,17.978566666666666,
5,condition1,1,勵,勵,f,2439,24,害,phon-sem,[],31,No,25,25,19,19,暫無，謝謝您的邀請。,4,Male,漢語，英語，西班牙語,無,664db585355de70e17541e5a,Chrome,Windows,1080,1920,17.978566666666666,
5,condition1,1,煉,煉,f,2320,25,葉,con,[],31,No,25,25,19,19,暫無，謝謝您的邀請。,4,Male,漢語，英語，西班牙語,無,664db585355de70e17541e5a,Chrome,Windows,1080,1920,17.978566666666666,
5,condition1,2,戚,唐,j,2631,26,唐,con,[],31,No,25,25,19,19,暫無，謝謝您的邀請。,4,Male,漢語，英語，西班牙語,無,664db585355de70e17541e5a,Chrome,Windows,1080,1920,17.978566666666666,
5,condition1,1,糖,糖,f,3431,27,鄰,con,[],31,No,25,25,19,19,暫無，謝謝您的邀請。,4,Male,漢語，英語，西班牙語,無,664db585355de70e17541e5a,Chrome,Windows,1080,1920,17.978566666666666,
5,condition1,2,倖,福,j,2327,28,福,phon-sem,[],31,No,25,25,19,19,暫無，謝謝您的邀請。,4,Male,漢語，英語，西班牙語,無,664db585355de70e17541e5a,Chrome,Windows,1080,1920,17.978566666666666,
5,condition1,2,傢,人,j,2200,29,人,phon-sem,[],31,No,25,25,19,19,暫無，謝謝您的邀請。,4,Male,漢語，英語，西班牙語,無,664db585355de70e17541e5a,Chrome,Windows,1080,1920,17.978566666666666,
5,condition1,1,盪,盪,f,2232,30,棍,con,[],31,No,25,25,19,19,暫無，謝謝您的邀請。,4,Male,漢語，英語，西班牙語,無,664db585355de70e17541e5a,Chrome,Windows,1080,1920,17.978566666666666,
5,condition1,2,樣,輕,j,2551,31,輕,con,[],31,No,25,25,19,19,暫無，謝謝您的邀請。,4,Male,漢語，英語，西班牙語,無,664db585355de70e17541e5a,Chrome,Windows,1080,1920,17.978566666666666,
5,condition1,2,梯,帝,j,2127,32,帝,phon-phon,[],31,No,25,25,19,19,暫無，謝謝您的邀請。,4,Male,漢語，英語，西班牙語,無,664db585355de70e17541e5a,Chrome,Windows,1080,1920,17.978566666666666,
5,condition1,2,邏,輯,j,2207,33,輯,sem-sem,[],31,No,25,25,19,19,暫無，謝謝您的邀請。,4,Male,漢語，英語，西班牙語,無,664db585355de70e17541e5a,Chrome,Windows,1080,1920,17.978566666666666,
5,condition1,2,峽,述,j,2197,34,述,con,[],31,No,25,25,19,19,暫無，謝謝您的邀請。,4,Male,漢語，英語，西班牙語,無,664db585355de70e17541e5a,Chrome,Windows,1080,1920,17.978566666666666,
5,condition1,1,軸,軸,f,2145,35,階,con,[],31,No,25,25,19,19,暫無，謝謝您的邀請。,4,Male,漢語，英語，西班牙語,無,664db585355de70e17541e5a,Chrome,Windows,1080,1920,17.978566666666666,
5,condition1,2,紐,醜,j,2110,36,醜,phon-phon,[],31,No,25,25,19,19,暫無，謝謝您的邀請。,4,Male,漢語，英語，西班牙語,無,664db585355de70e17541e5a,Chrome,Windows,1080,1920,17.978566666666666,
5,condition1,1,棋,棋,f,2216,37,實,phon-sem,[],31,No,25,25,19,19,暫無，謝謝您的邀請。,4,Male,漢語，英語，西班牙語,無,664db585355de70e17541e5a,Chrome,Windows,1080,1920,17.978566666666666,
5,condition1,1,擾,擾,f,2279,38,悠,phon-phon,[],31,No,25,25,19,19,暫無，謝謝您的邀請。,4,Male,漢語，英語，西班牙語,無,664db585355de70e17541e5a,Chrome,Windows,1080,1920,17.978566666666666,
5,condition1,2,秩,肯,j,2127,39,肯,con,[],31,No,25,25,19,19,暫無，謝謝您的邀請。,4,Male,漢語，英語，西班牙語,無,664db585355de70e17541e5a,Chrome,Windows,1080,1920,17.978566666666666,
5,condition1,1,松,松,f,2255,40,工,phon-phon,[],31,No,25,25,19,19,暫無，謝謝您的邀請。,4,Male,漢語，英語，西班牙語,無,664db585355de70e17541e5a,Chrome,Windows,1080,1920,17.978566666666666,
5,condition1,1,財,財,f,2223,41,能,phon-sem,[],31,No,25,25,19,19,暫無，謝謝您的邀請。,4,Male,漢語，英語，西班牙語,無,664db585355de70e17541e5a,Chrome,Windows,1080,1920,17.978566666666666,
5,condition1,1,漢,漢,f,2472,42,隔,con,[],31,No,25,25,19,19,暫無，謝謝您的邀請。,4,Male,漢語，英語，西班牙語,無,664db585355de70e17541e5a,Chrome,Windows,1080,1920,17.978566666666666,
5,condition1,1,線,線,j,2327,43,權,phon-phon,[],31,No,25,25,19,19,暫無，謝謝您的邀請。,4,Male,漢語，英語，西班牙語,無,664db585355de70e17541e5a,Chrome,Windows,1080,1920,17.978566666666666,
5,condition1,1,仗,仗,f,2175,44,夫,phon-sem,[],31,No,25,25,19,19,暫無，謝謝您的邀請。,4,Male,漢語，英語，西班牙語,無,664db585355de70e17541e5a,Chrome,Windows,1080,1920,17.978566666666666,
5,condition1,1,夫,夫,f,2279,45,妻,sem-sem,[],31,No,25,25,19,19,暫無，謝謝您的邀請。,4,Male,漢語，英語，西班牙語,無,664db585355de70e17541e5a,Chrome,Windows,1080,1920,17.978566666666666,
5,condition1,1,泥,泥,f,2176,46,姑,phon-sem,[],31,No,25,25,19,19,暫無，謝謝您的邀請。,4,Male,漢語，英語，西班牙語,無,664db585355de70e17541e5a,Chrome,Windows,1080,1920,17.978566666666666,
5,condition1,1,遂,遂,f,3023,47,喝,con,[],31,No,25,25,19,19,暫無，謝謝您的邀請。,4,Male,漢語，英語，西班牙語,無,664db585355de70e17541e5a,Chrome,Windows,1080,1920,17.978566666666666,
5,condition1,1,嬰,嬰,f,2245,48,兒,sem-sem,[],31,No,25,25,19,19,暫無，謝謝您的邀請。,4,Male,漢語，英語，西班牙語,無,664db585355de70e17541e5a,Chrome,Windows,1080,1920,17.978566666666666,
5,condition1,1,余,余,f,2246,49,別,con,[],31,No,25,25,19,19,暫無，謝謝您的邀請。,4,Male,漢語，英語，西班牙語,無,664db585355de70e17541e5a,Chrome,Windows,1080,1920,17.978566666666666,
5,condition1,2,炸,查,j,2601,50,查,con,[],31,No,25,25,19,19,暫無，謝謝您的邀請。,4,Male,漢語，英語，西班牙語,無,664db585355de70e17541e5a,Chrome,Windows,1080,1920,17.978566666666666,
5,condition1,2,形,再,j,2137,52,再,con,[],31,No,25,25,19,19,暫無，謝謝您的邀請。,4,Male,漢語，英語，西班牙語,無,664db585355de70e17541e5a,Chrome,Windows,1080,1920,17.978566666666666,
5,condition1,2,婚,迷,j,2151,53,迷,phon-sem,[],31,No,25,25,19,19,暫無，謝謝您的邀請。,4,Male,漢語，英語，西班牙語,無,664db585355de70e17541e5a,Chrome,Windows,1080,1920,17.978566666666666,
5,condition1,1,廁,廁,f,2183,54,所,sem-sem,[],31,No,25,25,19,19,暫無，謝謝您的邀請。,4,Male,漢語，英語，西班牙語,無,664db585355de70e17541e5a,Chrome,Windows,1080,1920,17.978566666666666,
5,condition1,1,極,極,f,2184,55,損,con,[],31,No,25,25,19,19,暫無，謝謝您的邀請。,4,Male,漢語，英語，西班牙語,無,664db585355de70e17541e5a,Chrome,Windows,1080,1920,17.978566666666666,
5,condition1,2,騙,貶,j,2120,56,貶,phon-phon,[],31,No,25,25,19,19,暫無，謝謝您的邀請。,4,Male,漢語，英語，西班牙語,無,664db585355de70e17541e5a,Chrome,Windows,1080,1920,17.978566666666666,
5,condition1,1,瑰,瑰,f,2230,57,殺,con,[],31,No,25,25,19,19,暫無，謝謝您的邀請。,4,Male,漢語，英語，西班牙語,無,664db585355de70e17541e5a,Chrome,Windows,1080,1920,17.978566666666666,
5,condition1,1,鏗,鏗,f,2200,58,間,phon-phon,[],31,No,25,25,19,19,暫無，謝謝您的邀請。,4,Male,漢語，英語，西班牙語,無,664db585355de70e17541e5a,Chrome,Windows,1080,1920,17.978566666666666,
5,condition1,1,浪,浪,f,2536,59,涼,phon-phon,[],31,No,25,25,19,19,暫無，謝謝您的邀請。,4,Male,漢語，英語，西班牙語,無,664db585355de70e17541e5a,Chrome,Windows,1080,1920,17.978566666666666,
5,condition1,1,懈,懈,f,2230,60,姐,phon-phon,[],31,No,25,25,19,19,暫無，謝謝您的邀請。,4,Male,漢語，英語，西班牙語,無,664db585355de70e17541e5a,Chrome,Windows,1080,1920,17.978566666666666,
5,condition1,1,個,個,f,2296,61,故,phon-phon,[],31,No,25,25,19,19,暫無，謝謝您的邀請。,4,Male,漢語，英語，西班牙語,無,664db585355de70e17541e5a,Chrome,Windows,1080,1920,17.978566666666666,
5,condition1,1,棚,棚,f,2278,62,友,phon-sem,[],31,No,25,25,19,19,暫無，謝謝您的邀請。,4,Male,漢語，英語，西班牙語,無,664db585355de70e17541e5a,Chrome,Windows,1080,1920,17.978566666666666,
5,condition1,1,寫,寫,f,2280,63,字,sem-sem,[],31,No,25,25,19,19,暫無，謝謝您的邀請。,4,Male,漢語，英語，西班牙語,無,664db585355de70e17541e5a,Chrome,Windows,1080,1920,17.978566666666666,
5,condition1,1,移,移,f,2207,64,勝,con,[],31,No,25,25,19,19,暫無，謝謝您的邀請。,4,Male,漢語，英語，西班牙語,無,664db585355de70e17541e5a,Chrome,Windows,1080,1920,17.978566666666666,
5,condition1,2,針,線,j,2311,65,線,sem-sem,[],31,No,25,25,19,19,暫無，謝謝您的邀請。,4,Male,漢語，英語，西班牙語,無,664db585355de70e17541e5a,Chrome,Windows,1080,1920,17.978566666666666,
5,condition1,2,錶,示,j,2133,66,示,phon-sem,[],31,No,25,25,19,19,暫無，謝謝您的邀請。,4,Male,漢語，英語，西班牙語,無,664db585355de70e17541e5a,Chrome,Windows,1080,1920,17.978566666666666,
5,condition1,2,尷,尬,j,2257,67,尬,sem-sem,[],31,No,25,25,19,19,暫無，謝謝您的邀請。,4,Male,漢語，英語，西班牙語,無,664db585355de70e17541e5a,Chrome,Windows,1080,1920,17.978566666666666,
5,condition1,2,滑,谷,j,2224,68,谷,phon-phon,[],31,No,25,25,19,19,暫無，謝謝您的邀請。,4,Male,漢語，英語，西班牙語,無,664db585355de70e17541e5a,Chrome,Windows,1080,1920,17.978566666666666,
5,condition1,1,喜,喜,f,2215,69,歡,sem-sem,[],31,No,25,25,19,19,暫無，謝謝您的邀請。,4,Male,漢語，英語，西班牙語,無,664db585355de70e17541e5a,Chrome,Windows,1080,1920,17.978566666666666,
5,condition1,2,燈,山,j,2103,70,山,phon-sem,[],31,No,25,25,19,19,暫無，謝謝您的邀請。,4,Male,漢語，英語，西班牙語,無,664db585355de70e17541e5a,Chrome,Windows,1080,1920,17.978566666666666,
5,condition1,1,剪,剪,f,2328,71,刀,sem-sem,[],31,No,25,25,19,19,暫無，謝謝您的邀請。,4,Male,漢語，英語，西班牙語,無,664db585355de70e17541e5a,Chrome,Windows,1080,1920,17.978566666666666,
5,condition1,1,陌,陌,f,2470,72,擺,phon-phon,[],31,No,25,25,19,19,暫無，謝謝您的邀請。,4,Male,漢語，英語，西班牙語,無,664db585355de70e17541e5a,Chrome,Windows,1080,1920,17.978566666666666,
5,condition1,1,迅,迅,f,2192,73,速,sem-sem,[],31,No,25,25,19,19,暫無，謝謝您的邀請。,4,Male,漢語，英語，西班牙語,無,664db585355de70e17541e5a,Chrome,Windows,1080,1920,17.978566666666666,
5,condition1,2,殖,游,f,2248,74,游,con,[],31,No,25,25,19,19,暫無，謝謝您的邀請。,4,Male,漢語，英語，西班牙語,無,664db585355de70e17541e5a,Chrome,Windows,1080,1920,17.978566666666666,
5,condition1,2,審,判,j,2326,75,判,sem-sem,[],31,No,25,25,19,19,暫無，謝謝您的邀請。,4,Male,漢語，英語，西班牙語,無,664db585355de70e17541e5a,Chrome,Windows,1080,1920,17.978566666666666,
5,condition1,2,妹,喂,j,2144,76,喂,phon-phon,[],31,No,25,25,19,19,暫無，謝謝您的邀請。,4,Male,漢語，英語，西班牙語,無,664db585355de70e17541e5a,Chrome,Windows,1080,1920,17.978566666666666,
5,condition1,2,厭,惡,j,2142,77,惡,sem-sem,[],31,No,25,25,19,19,暫無，謝謝您的邀請。,4,Male,漢語，英語，西班牙語,無,664db585355de70e17541e5a,Chrome,Windows,1080,1920,17.978566666666666,
5,condition1,2,仇,恨,j,2127,78,恨,sem-sem,[],31,No,25,25,19,19,暫無，謝謝您的邀請。,4,Male,漢語，英語，西班牙語,無,664db585355de70e17541e5a,Chrome,Windows,1080,1920,17.978566666666666,
5,condition1,2,謝,社,j,2143,79,社,phon-phon,[],31,No,25,25,19,19,暫無，謝謝您的邀請。,4,Male,漢語，英語，西班牙語,無,664db585355de70e17541e5a,Chrome,Windows,1080,1920,17.978566666666666,
5,condition1,1,烤,烤,f,2151,80,試,phon-sem,[],31,No,25,25,19,19,暫無，謝謝您的邀請。,4,Male,漢語，英語，西班牙語,無,664db585355de70e17541e5a,Chrome,Windows,1080,1920,17.978566666666666,
5,condition1,1,螺,螺,f,2264,81,類,phon-phon,[],31,No,25,25,19,19,暫無，謝謝您的邀請。,4,Male,漢語，英語，西班牙語,無,664db585355de70e17541e5a,Chrome,Windows,1080,1920,17.978566666666666,
5,condition1,1,諷,諷,f,2230,82,刺,sem-sem,[],31,No,25,25,19,19,暫無，謝謝您的邀請。,4,Male,漢語，英語，西班牙語,無,664db585355de70e17541e5a,Chrome,Windows,1080,1920,17.978566666666666,
5,condition1,1,繪,繪,f,2192,83,港,con,[],31,No,25,25,19,19,暫無，謝謝您的邀請。,4,Male,漢語，英語，西班牙語,無,664db585355de70e17541e5a,Chrome,Windows,1080,1920,17.978566666666666,
5,condition1,2,檔,諾,j,2368,84,諾,con,[],31,No,25,25,19,19,暫無，謝謝您的邀請。,4,Male,漢語，英語，西班牙語,無,664db585355de70e17541e5a,Chrome,Windows,1080,1920,17.978566666666666,
5,condition1,2,批,筆,j,2184,85,筆,phon-phon,[],31,No,25,25,19,19,暫無，謝謝您的邀請。,4,Male,漢語，英語，西班牙語,無,664db585355de70e17541e5a,Chrome,Windows,1080,1920,17.978566666666666,
5,condition1,2,擁,賞,j,2191,86,賞,con,[],31,No,25,25,19,19,暫無，謝謝您的邀請。,4,Male,漢語，英語，西班牙語,無,664db585355de70e17541e5a,Chrome,Windows,1080,1920,17.978566666666666,
5,condition1,1,倪,倪,f,2271,87,而,phon-phon,[],31,No,25,25,19,19,暫無，謝謝您的邀請。,4,Male,漢語，英語，西班牙語,無,664db585355de70e17541e5a,Chrome,Windows,1080,1920,17.978566666666666,
5,condition1,1,佑,佑,f,2240,88,左,phon-sem,[],31,No,25,25,19,19,暫無，謝謝您的邀請。,4,Male,漢語，英語，西班牙語,無,664db585355de70e17541e5a,Chrome,Windows,1080,1920,17.978566666666666,
5,condition1,2,源,因,j,2280,89,因,phon-sem,[],31,No,25,25,19,19,暫無，謝謝您的邀請。,4,Male,漢語，英語，西班牙語,無,664db585355de70e17541e5a,Chrome,Windows,1080,1920,17.978566666666666,
5,condition1,1,司,司,f,2160,90,進,con,[],31,No,25,25,19,19,暫無，謝謝您的邀請。,4,Male,漢語，英語，西班牙語,無,664db585355de70e17541e5a,Chrome,Windows,1080,1920,17.978566666666666,
5,condition1,1,謂,謂,f,2286,91,腸,phon-sem,[],31,No,25,25,19,19,暫無，謝謝您的邀請。,4,Male,漢語，英語，西班牙語,無,664db585355de70e17541e5a,Chrome,Windows,1080,1920,17.978566666666666,
5,condition1,1,肥,肥,f,2520,92,胖,sem-sem,[],31,No,25,25,19,19,暫無，謝謝您的邀請。,4,Male,漢語，英語，西班牙語,無,664db585355de70e17541e5a,Chrome,Windows,1080,1920,17.978566666666666,
5,condition1,1,氾,氾,f,2362,93,濫,sem-sem,[],31,No,25,25,19,19,暫無，謝謝您的邀請。,4,Male,漢語，英語，西班牙語,無,664db585355de70e17541e5a,Chrome,Windows,1080,1920,17.978566666666666,
5,condition1,2,黑,白,j,2143,94,白,sem-sem,[],31,No,25,25,19,19,暫無，謝謝您的邀請。,4,Male,漢語，英語，西班牙語,無,664db585355de70e17541e5a,Chrome,Windows,1080,1920,17.978566666666666,
5,condition1,2,附,出,j,2271,95,出,phon-sem,[],31,No,25,25,19,19,暫無，謝謝您的邀請。,4,Male,漢語，英語，西班牙語,無,664db585355de70e17541e5a,Chrome,Windows,1080,1920,17.978566666666666,
5,condition1,1,陀,陀,f,2199,96,他,phon-phon,[],31,No,25,25,19,19,暫無，謝謝您的邀請。,4,Male,漢語，英語，西班牙語,無,664db585355de70e17541e5a,Chrome,Windows,1080,1920,17.978566666666666,
5,condition1,1,泳,泳,f,2166,97,遠,phon-sem,[],31,No,25,25,19,19,暫無，謝謝您的邀請。,4,Male,漢語，英語，西班牙語,無,664db585355de70e17541e5a,Chrome,Windows,1080,1920,17.978566666666666,
5,condition1,1,搔,搔,f,2319,98,癢,sem-sem,[],31,No,25,25,19,19,暫無，謝謝您的邀請。,4,Male,漢語，英語，西班牙語,無,664db585355de70e17541e5a,Chrome,Windows,1080,1920,17.978566666666666,
5,condition1,1,簡,簡,f,2264,99,單,sem-sem,[],31,No,25,25,19,19,暫無，謝謝您的邀請。,4,Male,漢語，英語，西班牙語,無,664db585355de70e17541e5a,Chrome,Windows,1080,1920,17.978566666666666,
5,condition1,2,雖,營,j,2288,100,營,con,[],31,No,25,25,19,19,暫無，謝謝您的邀請。,4,Male,漢語，英語，西班牙語,無,664db585355de70e17541e5a,Chrome,Windows,1080,1920,17.978566666666666,
5,condition1,1,惶,惶,f,2177,102,帝,phon-sem,[],31,No,25,25,19,19,暫無，謝謝您的邀請。,4,Male,漢語，英語，西班牙語,無,664db585355de70e17541e5a,Chrome,Windows,1080,1920,17.978566666666666,
5,condition1,1,拯,拯,f,2159,103,救,sem-sem,[],31,No,25,25,19,19,暫無，謝謝您的邀請。,4,Male,漢語，英語，西班牙語,無,664db585355de70e17541e5a,Chrome,Windows,1080,1920,17.978566666666666,
5,condition1,2,誌,願,j,2103,104,願,phon-sem,[],31,No,25,25,19,19,暫無，謝謝您的邀請。,4,Male,漢語，英語，西班牙語,無,664db585355de70e17541e5a,Chrome,Windows,1080,1920,17.978566666666666,
5,condition1,2,額,賽,j,2142,105,賽,con,[],31,No,25,25,19,19,暫無，謝謝您的邀請。,4,Male,漢語，英語，西班牙語,無,664db585355de70e17541e5a,Chrome,Windows,1080,1920,17.978566666666666,
5,condition1,2,緊,張,j,2134,106,張,sem-sem,[],31,No,25,25,19,19,暫無，謝謝您的邀請。,4,Male,漢語，英語，西班牙語,無,664db585355de70e17541e5a,Chrome,Windows,1080,1920,17.978566666666666,
5,condition1,1,革,革,f,2201,107,命,sem-sem,[],31,No,25,25,19,19,暫無，謝謝您的邀請。,4,Male,漢語，英語，西班牙語,無,664db585355de70e17541e5a,Chrome,Windows,1080,1920,17.978566666666666,
5,condition1,1,村,村,f,2199,108,即,con,[],31,No,25,25,19,19,暫無，謝謝您的邀請。,4,Male,漢語，英語，西班牙語,無,664db585355de70e17541e5a,Chrome,Windows,1080,1920,17.978566666666666,
5,condition1,2,紛,析,j,2183,109,析,phon-sem,[],31,No,25,25,19,19,暫無，謝謝您的邀請。,4,Male,漢語，英語，西班牙語,無,664db585355de70e17541e5a,Chrome,Windows,1080,1920,17.978566666666666,
5,condition1,1,盔,盔,f,2438,110,甲,sem-sem,[],31,No,25,25,19,19,暫無，謝謝您的邀請。,4,Male,漢語，英語，西班牙語,無,664db585355de70e17541e5a,Chrome,Windows,1080,1920,17.978566666666666,
5,condition1,2,晚,勉,j,2137,111,勉,phon-phon,[],31,No,25,25,19,19,暫無，謝謝您的邀請。,4,Male,漢語，英語，西班牙語,無,664db585355de70e17541e5a,Chrome,Windows,1080,1920,17.978566666666666,
5,condition1,2,克,服,j,2254,112,服,sem-sem,[],31,No,25,25,19,19,暫無，謝謝您的邀請。,4,Male,漢語，英語，西班牙語,無,664db585355de70e17541e5a,Chrome,Windows,1080,1920,17.978566666666666,
5,condition1,1,垃,垃,f,2272,113,圾,sem-sem,[],31,No,25,25,19,19,暫無，謝謝您的邀請。,4,Male,漢語，英語，西班牙語,無,664db585355de70e17541e5a,Chrome,Windows,1080,1920,17.978566666666666,
5,condition1,2,觸,屬,j,2110,114,屬,phon-phon,[],31,No,25,25,19,19,暫無，謝謝您的邀請。,4,Male,漢語，英語，西班牙語,無,664db585355de70e17541e5a,Chrome,Windows,1080,1920,17.978566666666666,
5,condition1,2,矚,數,j,2239,115,數,phon-phon,[],31,No,25,25,19,19,暫無，謝謝您的邀請。,4,Male,漢語，英語，西班牙語,無,664db585355de70e17541e5a,Chrome,Windows,1080,1920,17.978566666666666,
5,condition1,2,首,俊,j,2198,116,俊,con,[],31,No,25,25,19,19,暫無，謝謝您的邀請。,4,Male,漢語，英語，西班牙語,無,664db585355de70e17541e5a,Chrome,Windows,1080,1920,17.978566666666666,
5,condition1,2,奴,隸,j,2144,117,隸,sem-sem,[],31,No,25,25,19,19,暫無，謝謝您的邀請。,4,Male,漢語，英語，西班牙語,無,664db585355de70e17541e5a,Chrome,Windows,1080,1920,17.978566666666666,
5,condition1,2,銘,字,j,2303,118,字,phon-sem,[],31,No,25,25,19,19,暫無，謝謝您的邀請。,4,Male,漢語，英語，西班牙語,無,664db585355de70e17541e5a,Chrome,Windows,1080,1920,17.978566666666666,
5,condition1,1,囚,囚,f,2319,119,犯,sem-sem,[],31,No,25,25,19,19,暫無，謝謝您的邀請。,4,Male,漢語，英語，西班牙語,無,664db585355de70e17541e5a,Chrome,Windows,1080,1920,17.978566666666666,
5,condition1,1,結,結,f,2215,120,即,phon-phon,[],31,No,25,25,19,19,暫無，謝謝您的邀請。,4,Male,漢語，英語，西班牙語,無,664db585355de70e17541e5a,Chrome,Windows,1080,1920,17.978566666666666,
5,condition1,2,億,義,j,2227,121,義,phon-sem,[],31,No,25,25,19,19,暫無，謝謝您的邀請。,4,Male,漢語，英語，西班牙語,無,664db585355de70e17541e5a,Chrome,Windows,1080,1920,17.978566666666666,
5,condition1,2,暗,因,j,2235,122,因,phon-phon,[],31,No,25,25,19,19,暫無，謝謝您的邀請。,4,Male,漢語，英語，西班牙語,無,664db585355de70e17541e5a,Chrome,Windows,1080,1920,17.978566666666666,
5,condition1,2,離,開,j,2167,123,開,sem-sem,[],31,No,25,25,19,19,暫無，謝謝您的邀請。,4,Male,漢語，英語，西班牙語,無,664db585355de70e17541e5a,Chrome,Windows,1080,1920,17.978566666666666,
5,condition1,2,企,天,j,2095,124,天,con,[],31,No,25,25,19,19,暫無，謝謝您的邀請。,4,Male,漢語，英語，西班牙語,無,664db585355de70e17541e5a,Chrome,Windows,1080,1920,17.978566666666666,
5,condition1,2,縮,素,j,2167,125,素,phon-phon,[],31,No,25,25,19,19,暫無，謝謝您的邀請。,4,Male,漢語，英語，西班牙語,無,664db585355de70e17541e5a,Chrome,Windows,1080,1920,17.978566666666666,
5,condition1,1,讀,讀,f,2248,126,邁,phon-phon,[],31,No,25,25,19,19,暫無，謝謝您的邀請。,4,Male,漢語，英語，西班牙語,無,664db585355de70e17541e5a,Chrome,Windows,1080,1920,17.978566666666666,
5,condition1,2,讚,成,j,2655,127,成,phon-sem,[],31,No,25,25,19,19,暫無，謝謝您的邀請。,4,Male,漢語，英語，西班牙語,無,664db585355de70e17541e5a,Chrome,Windows,1080,1920,17.978566666666666,
5,condition1,2,踝,裹,j,2215,128,裹,phon-phon,[],31,No,25,25,19,19,暫無，謝謝您的邀請。,4,Male,漢語，英語，西班牙語,無,664db585355de70e17541e5a,Chrome,Windows,1080,1920,17.978566666666666,
5,condition1,2,濃,田,j,2431,129,田,phon-sem,[],31,No,25,25,19,19,暫無，謝謝您的邀請。,4,Male,漢語，英語，西班牙語,無,664db585355de70e17541e5a,Chrome,Windows,1080,1920,17.978566666666666,
5,condition1,1,叫,叫,f,2359,130,六,con,[],31,No,25,25,19,19,暫無，謝謝您的邀請。,4,Male,漢語，英語，西班牙語,無,664db585355de70e17541e5a,Chrome,Windows,1080,1920,17.978566666666666,
5,condition1,1,黎,黎,f,2384,131,彬,con,[],31,No,25,25,19,19,暫無，謝謝您的邀請。,4,Male,漢語，英語，西班牙語,無,664db585355de70e17541e5a,Chrome,Windows,1080,1920,17.978566666666666,
5,condition1,2,森,林,j,2277,132,林,sem-sem,[],31,No,25,25,19,19,暫無，謝謝您的邀請。,4,Male,漢語，英語，西班牙語,無,664db585355de70e17541e5a,Chrome,Windows,1080,1920,17.978566666666666,
5,condition1,1,畢,畢,f,2227,133,業,sem-sem,[],31,No,25,25,19,19,暫無，謝謝您的邀請。,4,Male,漢語，英語，西班牙語,無,664db585355de70e17541e5a,Chrome,Windows,1080,1920,17.978566666666666,
5,condition1,2,宜,其,j,2181,134,其,con,[],31,No,25,25,19,19,暫無，謝謝您的邀請。,4,Male,漢語，英語，西班牙語,無,664db585355de70e17541e5a,Chrome,Windows,1080,1920,17.978566666666666,
5,condition1,1,据,据,f,2200,135,住,phon-sem,[],31,No,25,25,19,19,暫無，謝謝您的邀請。,4,Male,漢語，英語，西班牙語,無,664db585355de70e17541e5a,Chrome,Windows,1080,1920,17.978566666666666,
5,condition1,2,危,險,j,2096,136,險,sem-sem,[],31,No,25,25,19,19,暫無，謝謝您的邀請。,4,Male,漢語，英語，西班牙語,無,664db585355de70e17541e5a,Chrome,Windows,1080,1920,17.978566666666666,
5,condition1,2,諒,經,f,2406,137,經,phon-phon,[],31,No,25,25,19,19,暫無，謝謝您的邀請。,4,Male,漢語，英語，西班牙語,無,664db585355de70e17541e5a,Chrome,Windows,1080,1920,17.978566666666666,
5,condition1,2,孝,順,j,2350,138,順,sem-sem,[],31,No,25,25,19,19,暫無，謝謝您的邀請。,4,Male,漢語，英語，西班牙語,無,664db585355de70e17541e5a,Chrome,Windows,1080,1920,17.978566666666666,
5,condition1,1,稀,稀,f,2328,139,望,phon-sem,[],31,No,25,25,19,19,暫無，謝謝您的邀請。,4,Male,漢語，英語，西班牙語,無,664db585355de70e17541e5a,Chrome,Windows,1080,1920,17.978566666666666,
5,condition1,1,轎,轎,f,2336,140,瞧,phon-phon,[],31,No,25,25,19,19,暫無，謝謝您的邀請。,4,Male,漢語，英語，西班牙語,無,664db585355de70e17541e5a,Chrome,Windows,1080,1920,17.978566666666666,
5,condition1,2,跑,剝,f,2256,141,剝,phon-phon,[],31,No,25,25,19,19,暫無，謝謝您的邀請。,4,Male,漢語，英語，西班牙語,無,664db585355de70e17541e5a,Chrome,Windows,1080,1920,17.978566666666666,
5,condition1,2,耕,警,j,2317,142,警,phon-phon,[],31,No,25,25,19,19,暫無，謝謝您的邀請。,4,Male,漢語，英語，西班牙語,無,664db585355de70e17541e5a,Chrome,Windows,1080,1920,17.978566666666666,
5,condition1,2,儒,須,j,2217,143,須,phon-phon,[],31,No,25,25,19,19,暫無，謝謝您的邀請。,4,Male,漢語，英語，西班牙語,無,664db585355de70e17541e5a,Chrome,Windows,1080,1920,17.978566666666666,
5,condition1,1,溶,溶,f,2190,144,易,phon-sem,[],31,No,25,25,19,19,暫無，謝謝您的邀請。,4,Male,漢語，英語，西班牙語,無,664db585355de70e17541e5a,Chrome,Windows,1080,1920,17.978566666666666,
5,condition1,2,藥,邀,j,2311,145,邀,con,[],31,No,25,25,19,19,暫無，謝謝您的邀請。,4,Male,漢語，英語，西班牙語,無,664db585355de70e17541e5a,Chrome,Windows,1080,1920,17.978566666666666,
5,condition1,2,掘,區,j,2208,146,區,phon-phon,[],31,No,25,25,19,19,暫無，謝謝您的邀請。,4,Male,漢語，英語，西班牙語,無,664db585355de70e17541e5a,Chrome,Windows,1080,1920,17.978566666666666,
5,condition1,2,划,船,j,2223,147,船,sem-sem,[],31,No,25,25,19,19,暫無，謝謝您的邀請。,4,Male,漢語，英語，西班牙語,無,664db585355de70e17541e5a,Chrome,Windows,1080,1920,17.978566666666666,
5,condition1,2,根,候,j,2215,148,候,con,[],31,No,25,25,19,19,暫無，謝謝您的邀請。,4,Male,漢語，英語，西班牙語,無,664db585355de70e17541e5a,Chrome,Windows,1080,1920,17.978566666666666,
5,condition1,2,普,通,j,2239,149,通,sem-sem,[],31,No,25,25,19,19,暫無，謝謝您的邀請。,4,Male,漢語，英語，西班牙語,無,664db585355de70e17541e5a,Chrome,Windows,1080,1920,17.978566666666666,
5,condition1,1,遵,遵,f,2256,150,重,phon-sem,[],31,No,25,25,19,19,暫無，謝謝您的邀請。,4,Male,漢語，英語，西班牙語,無,664db585355de70e17541e5a,Chrome,Windows,1080,1920,17.978566666666666,
5,condition1,1,擅,擅,f,2249,152,廉,con,[],31,No,25,25,19,19,暫無，謝謝您的邀請。,4,Male,漢語，英語，西班牙語,無,664db585355de70e17541e5a,Chrome,Windows,1080,1920,17.978566666666666,
5,condition1,1,締,締,f,2217,153,國,phon-sem,[],31,No,25,25,19,19,暫無，謝謝您的邀請。,4,Male,漢語，英語，西班牙語,無,664db585355de70e17541e5a,Chrome,Windows,1080,1920,17.978566666666666,
5,condition1,1,帳,帳,f,2196,154,煮,con,[],31,No,25,25,19,19,暫無，謝謝您的邀請。,4,Male,漢語，英語，西班牙語,無,664db585355de70e17541e5a,Chrome,Windows,1080,1920,17.978566666666666,
5,condition1,1,湧,湧,f,2337,155,敢,phon-sem,[],31,No,25,25,19,19,暫無，謝謝您的邀請。,4,Male,漢語，英語，西班牙語,無,664db585355de70e17541e5a,Chrome,Windows,1080,1920,17.978566666666666,
5,condition1,2,槌,錐,j,2167,156,錐,phon-phon,[],31,No,25,25,19,19,暫無，謝謝您的邀請。,4,Male,漢語，英語，西班牙語,無,664db585355de70e17541e5a,Chrome,Windows,1080,1920,17.978566666666666,
5,condition1,1,輸,輸,f,2216,157,贏,sem-sem,[],31,No,25,25,19,19,暫無，謝謝您的邀請。,4,Male,漢語，英語，西班牙語,無,664db585355de70e17541e5a,Chrome,Windows,1080,1920,17.978566666666666,
5,condition1,2,很,車,j,2335,158,車,con,[],31,No,25,25,19,19,暫無，謝謝您的邀請。,4,Male,漢語，英語，西班牙語,無,664db585355de70e17541e5a,Chrome,Windows,1080,1920,17.978566666666666,
5,condition1,2,冰,冷,j,2207,159,冷,sem-sem,[],31,No,25,25,19,19,暫無，謝謝您的邀請。,4,Male,漢語，英語，西班牙語,無,664db585355de70e17541e5a,Chrome,Windows,1080,1920,17.978566666666666,
5,condition1,1,胸,胸,f,2222,160,奴,phon-sem,[],31,No,25,25,19,19,暫無，謝謝您的邀請。,4,Male,漢語，英語，西班牙語,無,664db585355de70e17541e5a,Chrome,Windows,1080,1920,17.978566666666666,
5,condition1,1,臭,臭,f,2286,161,堂,con,[],31,No,25,25,19,19,暫無，謝謝您的邀請。,4,Male,漢語，英語，西班牙語,無,664db585355de70e17541e5a,Chrome,Windows,1080,1920,17.978566666666666,
5,condition1,1,邦,邦,f,2352,162,鎖,con,[],31,No,25,25,19,19,暫無，謝謝您的邀請。,4,Male,漢語，英語，西班牙語,無,664db585355de70e17541e5a,Chrome,Windows,1080,1920,17.978566666666666,
5,condition1,2,漆,端,j,2151,163,端,con,[],31,No,25,25,19,19,暫無，謝謝您的邀請。,4,Male,漢語，英語，西班牙語,無,664db585355de70e17541e5a,Chrome,Windows,1080,1920,17.978566666666666,
5,condition1,1,那,那,f,2175,164,飛,con,[],31,No,25,25,19,19,暫無，謝謝您的邀請。,4,Male,漢語，英語，西班牙語,無,664db585355de70e17541e5a,Chrome,Windows,1080,1920,17.978566666666666,
5,condition1,2,遲,夕,j,2127,165,夕,phon-phon,[],31,No,25,25,19,19,暫無，謝謝您的邀請。,4,Male,漢語，英語，西班牙語,無,664db585355de70e17541e5a,Chrome,Windows,1080,1920,17.978566666666666,
5,condition1,1,儘,儘,f,2863,166,量,phon-sem,[],31,No,25,25,19,19,暫無，謝謝您的邀請。,4,Male,漢語，英語，西班牙語,無,664db585355de70e17541e5a,Chrome,Windows,1080,1920,17.978566666666666,
5,condition1,2,渡,量,j,2136,167,量,phon-sem,[],31,No,25,25,19,19,暫無，謝謝您的邀請。,4,Male,漢語，英語，西班牙語,無,664db585355de70e17541e5a,Chrome,Windows,1080,1920,17.978566666666666,
5,condition1,2,攤,南,j,2279,168,南,phon-phon,[],31,No,25,25,19,19,暫無，謝謝您的邀請。,4,Male,漢語，英語，西班牙語,無,664db585355de70e17541e5a,Chrome,Windows,1080,1920,17.978566666666666,
5,condition1,1,綜,綜,f,2303,169,教,phon-sem,[],31,No,25,25,19,19,暫無，謝謝您的邀請。,4,Male,漢語，英語，西班牙語,無,664db585355de70e17541e5a,Chrome,Windows,1080,1920,17.978566666666666,
5,condition1,2,摺,席,j,2271,170,席,phon-phon,[],31,No,25,25,19,19,暫無，謝謝您的邀請。,4,Male,漢語，英語，西班牙語,無,664db585355de70e17541e5a,Chrome,Windows,1080,1920,17.978566666666666,
5,condition1,2,楣,毛,j,2582,171,毛,phon-sem,[],31,No,25,25,19,19,暫無，謝謝您的邀請。,4,Male,漢語，英語，西班牙語,無,664db585355de70e17541e5a,Chrome,Windows,1080,1920,17.978566666666666,
5,condition1,2,虐,待,j,2241,172,待,sem-sem,[],31,No,25,25,19,19,暫無，謝謝您的邀請。,4,Male,漢語，英語，西班牙語,無,664db585355de70e17541e5a,Chrome,Windows,1080,1920,17.978566666666666,
5,condition1,1,準,準,f,2246,173,腦,con,[],31,No,25,25,19,19,暫無，謝謝您的邀請。,4,Male,漢語，英語，西班牙語,無,664db585355de70e17541e5a,Chrome,Windows,1080,1920,17.978566666666666,
5,condition1,1,提,提,f,2207,174,市,phon-phon,[],31,No,25,25,19,19,暫無，謝謝您的邀請。,4,Male,漢語，英語，西班牙語,無,664db585355de70e17541e5a,Chrome,Windows,1080,1920,17.978566666666666,
5,condition1,2,早,晚,j,2079,175,晚,sem-sem,[],31,No,25,25,19,19,暫無，謝謝您的邀請。,4,Male,漢語，英語，西班牙語,無,664db585355de70e17541e5a,Chrome,Windows,1080,1920,17.978566666666666,
5,condition1,1,稻,稻,f,2167,176,米,sem-sem,[],31,No,25,25,19,19,暫無，謝謝您的邀請。,4,Male,漢語，英語，西班牙語,無,664db585355de70e17541e5a,Chrome,Windows,1080,1920,17.978566666666666,
5,condition1,2,擺,霸,j,2208,177,霸,phon-phon,[],31,No,25,25,19,19,暫無，謝謝您的邀請。,4,Male,漢語，英語，西班牙語,無,664db585355de70e17541e5a,Chrome,Windows,1080,1920,17.978566666666666,
5,condition1,1,梓,梓,f,2190,178,某,con,[],31,No,25,25,19,19,暫無，謝謝您的邀請。,4,Male,漢語，英語，西班牙語,無,664db585355de70e17541e5a,Chrome,Windows,1080,1920,17.978566666666666,
5,condition1,2,楓,雨,j,2127,179,雨,phon-sem,[],31,No,25,25,19,19,暫無，謝謝您的邀請。,4,Male,漢語，英語，西班牙語,無,664db585355de70e17541e5a,Chrome,Windows,1080,1920,17.978566666666666,
5,condition1,1,壯,壯,f,2479,180,另,con,[],31,No,25,25,19,19,暫無，謝謝您的邀請。,4,Male,漢語，英語，西班牙語,無,664db585355de70e17541e5a,Chrome,Windows,1080,1920,17.978566666666666,
5,condition1,2,手,腳,j,2247,181,腳,sem-sem,[],31,No,25,25,19,19,暫無，謝謝您的邀請。,4,Male,漢語，英語，西班牙語,無,664db585355de70e17541e5a,Chrome,Windows,1080,1920,17.978566666666666,
5,condition1,1,輾,輾,f,2216,182,斬,phon-phon,[],31,No,25,25,19,19,暫無，謝謝您的邀請。,4,Male,漢語，英語，西班牙語,無,664db585355de70e17541e5a,Chrome,Windows,1080,1920,17.978566666666666,
5,condition1,1,擒,擒,f,2254,183,獸,phon-sem,[],31,No,25,25,19,19,暫無，謝謝您的邀請。,4,Male,漢語，英語，西班牙語,無,664db585355de70e17541e5a,Chrome,Windows,1080,1920,17.978566666666666,
5,condition1,2,饑,餓,j,2151,184,餓,sem-sem,[],31,No,25,25,19,19,暫無，謝謝您的邀請。,4,Male,漢語，英語，西班牙語,無,664db585355de70e17541e5a,Chrome,Windows,1080,1920,17.978566666666666,
5,condition1,2,堪,慎,j,2432,185,慎,phon-phon,[],31,No,25,25,19,19,暫無，謝謝您的邀請。,4,Male,漢語，英語，西班牙語,無,664db585355de70e17541e5a,Chrome,Windows,1080,1920,17.978566666666666,
5,condition1,1,轄,轄,f,2263,186,嗨,phon-phon,[],31,No,25,25,19,19,暫無，謝謝您的邀請。,4,Male,漢語，英語，西班牙語,無,664db585355de70e17541e5a,Chrome,Windows,1080,1920,17.978566666666666,
5,condition1,2,東,西,j,2279,187,西,sem-sem,[],31,No,25,25,19,19,暫無，謝謝您的邀請。,4,Male,漢語，英語，西班牙語,無,664db585355de70e17541e5a,Chrome,Windows,1080,1920,17.978566666666666,
5,condition1,2,健,立,j,2120,188,立,phon-sem,[],31,No,25,25,19,19,暫無，謝謝您的邀請。,4,Male,漢語，英語，西班牙語,無,664db585355de70e17541e5a,Chrome,Windows,1080,1920,17.978566666666666,
5,condition1,1,蔬,蔬,f,2222,189,菜,sem-sem,[],31,No,25,25,19,19,暫無，謝謝您的邀請。,4,Male,漢語，英語，西班牙語,無,664db585355de70e17541e5a,Chrome,Windows,1080,1920,17.978566666666666,
5,condition1,2,銀,蓋,j,2431,190,蓋,con,[],31,No,25,25,19,19,暫無，謝謝您的邀請。,4,Male,漢語，英語，西班牙語,無,664db585355de70e17541e5a,Chrome,Windows,1080,1920,17.978566666666666,
7,condition1,1,懈,懈,f,2372,8,姐,phon-phon,[],28,Yes,12,16,6,0,請問第二個字是否停留的時間太久？感覺無需知道第一個字是什麼，只要記住第二個字就可以。如果隨後出現的字和第二個字相同按j，和第二個字不同按f，是否看到第一個字根本不重要。,3,Male,中文，英語,沒有問題。,5faefcc22be93b11829e84df,Firefox,Mac,1117,1728,5.41805,
7,condition1,1,早,早,f,2335,9,晚,sem-sem,[],28,Yes,12,16,6,0,請問第二個字是否停留的時間太久？感覺無需知道第一個字是什麼，只要記住第二個字就可以。如果隨後出現的字和第二個字相同按j，和第二個字不同按f，是否看到第一個字根本不重要。,3,Male,中文，英語,沒有問題。,5faefcc22be93b11829e84df,Firefox,Mac,1117,1728,5.41805,
7,condition1,1,肥,肥,f,2364,10,胖,sem-sem,[],28,Yes,12,16,6,0,請問第二個字是否停留的時間太久？感覺無需知道第一個字是什麼，只要記住第二個字就可以。如果隨後出現的字和第二個字相同按j，和第二個字不同按f，是否看到第一個字根本不重要。,3,Male,中文，英語,沒有問題。,5faefcc22be93b11829e84df,Firefox,Mac,1117,1728,5.41805,
7,condition1,1,泳,泳,f,2334,11,遠,phon-sem,[],28,Yes,12,16,6,0,請問第二個字是否停留的時間太久？感覺無需知道第一個字是什麼，只要記住第二個字就可以。如果隨後出現的字和第二個字相同按j，和第二個字不同按f，是否看到第一個字根本不重要。,3,Male,中文，英語,沒有問題。,5faefcc22be93b11829e84df,Firefox,Mac,1117,1728,5.41805,
7,condition1,1,臭,臭,f,2548,12,堂,con,[],28,Yes,12,16,6,0,請問第二個字是否停留的時間太久？感覺無需知道第一個字是什麼，只要記住第二個字就可以。如果隨後出現的字和第二個字相同按j，和第二個字不同按f，是否看到第一個字根本不重要。,3,Male,中文，英語,沒有問題。,5faefcc22be93b11829e84df,Firefox,Mac,1117,1728,5.41805,
7,condition1,2,矚,數,j,2791,13,數,phon-phon,[],28,Yes,12,16,6,0,請問第二個字是否停留的時間太久？感覺無需知道第一個字是什麼，只要記住第二個字就可以。如果隨後出現的字和第二個字相同按j，和第二個字不同按f，是否看到第一個字根本不重要。,3,Male,中文，英語,沒有問題。,5faefcc22be93b11829e84df,Firefox,Mac,1117,1728,5.41805,
7,condition1,1,克,克,f,2118,14,服,sem-sem,[],28,Yes,12,16,6,0,請問第二個字是否停留的時間太久？感覺無需知道第一個字是什麼，只要記住第二個字就可以。如果隨後出現的字和第二個字相同按j，和第二個字不同按f，是否看到第一個字根本不重要。,3,Male,中文，英語,沒有問題。,5faefcc22be93b11829e84df,Firefox,Mac,1117,1728,5.41805,
7,condition1,2,擒,獸,j,2316,15,獸,phon-sem,[],28,Yes,12,16,6,0,請問第二個字是否停留的時間太久？感覺無需知道第一個字是什麼，只要記住第二個字就可以。如果隨後出現的字和第二個字相同按j，和第二個字不同按f，是否看到第一個字根本不重要。,3,Male,中文，英語,沒有問題。,5faefcc22be93b11829e84df,Firefox,Mac,1117,1728,5.41805,
7,condition1,1,掘,掘,f,2311,16,區,phon-phon,[],28,Yes,12,16,6,0,請問第二個字是否停留的時間太久？感覺無需知道第一個字是什麼，只要記住第二個字就可以。如果隨後出現的字和第二個字相同按j，和第二個字不同按f，是否看到第一個字根本不重要。,3,Male,中文，英語,沒有問題。,5faefcc22be93b11829e84df,Firefox,Mac,1117,1728,5.41805,
7,condition1,2,謝,社,j,2264,17,社,phon-phon,[],28,Yes,12,16,6,0,請問第二個字是否停留的時間太久？感覺無需知道第一個字是什麼，只要記住第二個字就可以。如果隨後出現的字和第二個字相同按j，和第二個字不同按f，是否看到第一個字根本不重要。,3,Male,中文，英語,沒有問題。,5faefcc22be93b11829e84df,Firefox,Mac,1117,1728,5.41805,
7,condition1,2,棚,友,j,2213,18,友,phon-sem,[],28,Yes,12,16,6,0,請問第二個字是否停留的時間太久？感覺無需知道第一個字是什麼，只要記住第二個字就可以。如果隨後出現的字和第二個字相同按j，和第二個字不同按f，是否看到第一個字根本不重要。,3,Male,中文，英語,沒有問題。,5faefcc22be93b11829e84df,Firefox,Mac,1117,1728,5.41805,
7,condition1,2,盔,甲,j,2175,19,甲,sem-sem,[],28,Yes,12,16,6,0,請問第二個字是否停留的時間太久？感覺無需知道第一個字是什麼，只要記住第二個字就可以。如果隨後出現的字和第二個字相同按j，和第二個字不同按f，是否看到第一個字根本不重要。,3,Male,中文，英語,沒有問題。,5faefcc22be93b11829e84df,Firefox,Mac,1117,1728,5.41805,
7,condition1,2,倪,而,j,2101,20,而,phon-phon,[],28,Yes,12,16,6,0,請問第二個字是否停留的時間太久？感覺無需知道第一個字是什麼，只要記住第二個字就可以。如果隨後出現的字和第二個字相同按j，和第二個字不同按f，是否看到第一個字根本不重要。,3,Male,中文，英語,沒有問題。,5faefcc22be93b11829e84df,Firefox,Mac,1117,1728,5.41805,
7,condition1,1,讚,讚,f,2341,21,成,phon-sem,[],28,Yes,12,16,6,0,請問第二個字是否停留的時間太久？感覺無需知道第一個字是什麼，只要記住第二個字就可以。如果隨後出現的字和第二個字相同按j，和第二個字不同按f，是否看到第一個字根本不重要。,3,Male,中文，英語,沒有問題。,5faefcc22be93b11829e84df,Firefox,Mac,1117,1728,5.41805,
7,condition1,1,移,移,f,2199,22,勝,con,[],28,Yes,12,16,6,0,請問第二個字是否停留的時間太久？感覺無需知道第一個字是什麼，只要記住第二個字就可以。如果隨後出現的字和第二個字相同按j，和第二個字不同按f，是否看到第一個字根本不重要。,3,Male,中文，英語,沒有問題。,5faefcc22be93b11829e84df,Firefox,Mac,1117,1728,5.41805,
7,condition1,1,耕,耕,f,2229,23,警,phon-phon,[],28,Yes,12,16,6,0,請問第二個字是否停留的時間太久？感覺無需知道第一個字是什麼，只要記住第二個字就可以。如果隨後出現的字和第二個字相同按j，和第二個字不同按f，是否看到第一個字根本不重要。,3,Male,中文，英語,沒有問題。,5faefcc22be93b11829e84df,Firefox,Mac,1117,1728,5.41805,
7,condition1,2,殖,游,j,2587,24,游,con,[],28,Yes,12,16,6,0,請問第二個字是否停留的時間太久？感覺無需知道第一個字是什麼，只要記住第二個字就可以。如果隨後出現的字和第二個字相同按j，和第二個字不同按f，是否看到第一個字根本不重要。,3,Male,中文，英語,沒有問題。,5faefcc22be93b11829e84df,Firefox,Mac,1117,1728,5.41805,
7,condition1,2,堪,慎,j,2113,25,慎,phon-phon,[],28,Yes,12,16,6,0,請問第二個字是否停留的時間太久？感覺無需知道第一個字是什麼，只要記住第二個字就可以。如果隨後出現的字和第二個字相同按j，和第二個字不同按f，是否看到第一個字根本不重要。,3,Male,中文，英語,沒有問題。,5faefcc22be93b11829e84df,Firefox,Mac,1117,1728,5.41805,
7,condition1,1,批,批,f,2332,26,筆,phon-phon,[],28,Yes,12,16,6,0,請問第二個字是否停留的時間太久？感覺無需知道第一個字是什麼，只要記住第二個字就可以。如果隨後出現的字和第二個字相同按j，和第二個字不同按f，是否看到第一個字根本不重要。,3,Male,中文，英語,沒有問題。,5faefcc22be93b11829e84df,Firefox,Mac,1117,1728,5.41805,
7,condition1,1,輾,輾,f,2357,27,斬,phon-phon,[],28,Yes,12,16,6,0,請問第二個字是否停留的時間太久？感覺無需知道第一個字是什麼，只要記住第二個字就可以。如果隨後出現的字和第二個字相同按j，和第二個字不同按f，是否看到第一個字根本不重要。,3,Male,中文，英語,沒有問題。,5faefcc22be93b11829e84df,Firefox,Mac,1117,1728,5.41805,
7,condition1,2,踝,裹,j,2237,28,裹,phon-phon,[],28,Yes,12,16,6,0,請問第二個字是否停留的時間太久？感覺無需知道第一個字是什麼，只要記住第二個字就可以。如果隨後出現的字和第二個字相同按j，和第二個字不同按f，是否看到第一個字根本不重要。,3,Male,中文，英語,沒有問題。,5faefcc22be93b11829e84df,Firefox,Mac,1117,1728,5.41805,
7,condition1,2,誌,願,j,2281,29,願,phon-sem,[],28,Yes,12,16,6,0,請問第二個字是否停留的時間太久？感覺無需知道第一個字是什麼，只要記住第二個字就可以。如果隨後出現的字和第二個字相同按j，和第二個字不同按f，是否看到第一個字根本不重要。,3,Male,中文，英語,沒有問題。,5faefcc22be93b11829e84df,Firefox,Mac,1117,1728,5.41805,
7,condition1,2,划,船,j,2221,30,船,sem-sem,[],28,Yes,12,16,6,0,請問第二個字是否停留的時間太久？感覺無需知道第一個字是什麼，只要記住第二個字就可以。如果隨後出現的字和第二個字相同按j，和第二個字不同按f，是否看到第一個字根本不重要。,3,Male,中文，英語,沒有問題。,5faefcc22be93b11829e84df,Firefox,Mac,1117,1728,5.41805,
7,condition1,2,騙,貶,j,2155,31,貶,phon-phon,[],28,Yes,12,16,6,0,請問第二個字是否停留的時間太久？感覺無需知道第一個字是什麼，只要記住第二個字就可以。如果隨後出現的字和第二個字相同按j，和第二個字不同按f，是否看到第一個字根本不重要。,3,Male,中文，英語,沒有問題。,5faefcc22be93b11829e84df,Firefox,Mac,1117,1728,5.41805,
7,condition1,2,槌,錐,j,2144,32,錐,phon-phon,[],28,Yes,12,16,6,0,請問第二個字是否停留的時間太久？感覺無需知道第一個字是什麼，只要記住第二個字就可以。如果隨後出現的字和第二個字相同按j，和第二個字不同按f，是否看到第一個字根本不重要。,3,Male,中文，英語,沒有問題。,5faefcc22be93b11829e84df,Firefox,Mac,1117,1728,5.41805,
7,condition1,2,儘,量,j,2262,33,量,phon-sem,[],28,Yes,12,16,6,0,請問第二個字是否停留的時間太久？感覺無需知道第一個字是什麼，只要記住第二個字就可以。如果隨後出現的字和第二個字相同按j，和第二個字不同按f，是否看到第一個字根本不重要。,3,Male,中文，英語,沒有問題。,5faefcc22be93b11829e84df,Firefox,Mac,1117,1728,5.41805,
7,condition1,2,倖,福,j,2071,34,福,phon-sem,[],28,Yes,12,16,6,0,請問第二個字是否停留的時間太久？感覺無需知道第一個字是什麼，只要記住第二個字就可以。如果隨後出現的字和第二個字相同按j，和第二個字不同按f，是否看到第一個字根本不重要。,3,Male,中文，英語,沒有問題。,5faefcc22be93b11829e84df,Firefox,Mac,1117,1728,5.41805,
7,condition1,1,諒,諒,f,2115,35,經,phon-phon,[],28,Yes,12,16,6,0,請問第二個字是否停留的時間太久？感覺無需知道第一個字是什麼，只要記住第二個字就可以。如果隨後出現的字和第二個字相同按j，和第二個字不同按f，是否看到第一個字根本不重要。,3,Male,中文，英語,沒有問題。,5faefcc22be93b11829e84df,Firefox,Mac,1117,1728,5.41805,
7,condition1,2,松,工,j,2226,36,工,phon-phon,[],28,Yes,12,16,6,0,請問第二個字是否停留的時間太久？感覺無需知道第一個字是什麼，只要記住第二個字就可以。如果隨後出現的字和第二個字相同按j，和第二個字不同按f，是否看到第一個字根本不重要。,3,Male,中文，英語,沒有問題。,5faefcc22be93b11829e84df,Firefox,Mac,1117,1728,5.41805,
7,condition1,2,額,賽,j,2122,37,賽,con,[],28,Yes,12,16,6,0,請問第二個字是否停留的時間太久？感覺無需知道第一個字是什麼，只要記住第二個字就可以。如果隨後出現的字和第二個字相同按j，和第二個字不同按f，是否看到第一個字根本不重要。,3,Male,中文，英語,沒有問題。,5faefcc22be93b11829e84df,Firefox,Mac,1117,1728,5.41805,
7,condition1,1,蔬,蔬,f,2068,38,菜,sem-sem,[],28,Yes,12,16,6,0,請問第二個字是否停留的時間太久？感覺無需知道第一個字是什麼，只要記住第二個字就可以。如果隨後出現的字和第二個字相同按j，和第二個字不同按f，是否看到第一個字根本不重要。,3,Male,中文，英語,沒有問題。,5faefcc22be93b11829e84df,Firefox,Mac,1117,1728,5.41805,
7,condition1,1,輸,輸,f,2149,39,贏,sem-sem,[],28,Yes,12,16,6,0,請問第二個字是否停留的時間太久？感覺無需知道第一個字是什麼，只要記住第二個字就可以。如果隨後出現的字和第二個字相同按j，和第二個字不同按f，是否看到第一個字根本不重要。,3,Male,中文，英語,沒有問題。,5faefcc22be93b11829e84df,Firefox,Mac,1117,1728,5.41805,
7,condition1,1,囚,囚,f,2092,40,犯,sem-sem,[],28,Yes,12,16,6,0,請問第二個字是否停留的時間太久？感覺無需知道第一個字是什麼，只要記住第二個字就可以。如果隨後出現的字和第二個字相同按j，和第二個字不同按f，是否看到第一個字根本不重要。,3,Male,中文，英語,沒有問題。,5faefcc22be93b11829e84df,Firefox,Mac,1117,1728,5.41805,
7,condition1,1,冰,冰,f,2107,41,冷,sem-sem,[],28,Yes,12,16,6,0,請問第二個字是否停留的時間太久？感覺無需知道第一個字是什麼，只要記住第二個字就可以。如果隨後出現的字和第二個字相同按j，和第二個字不同按f，是否看到第一個字根本不重要。,3,Male,中文，英語,沒有問題。,5faefcc22be93b11829e84df,Firefox,Mac,1117,1728,5.41805,
7,condition1,1,秩,秩,f,2193,42,肯,con,[],28,Yes,12,16,6,0,請問第二個字是否停留的時間太久？感覺無需知道第一個字是什麼，只要記住第二個字就可以。如果隨後出現的字和第二個字相同按j，和第二個字不同按f，是否看到第一個字根本不重要。,3,Male,中文，英語,沒有問題。,5faefcc22be93b11829e84df,Firefox,Mac,1117,1728,5.41805,
7,condition1,1,附,附,f,2191,43,出,phon-sem,[],28,Yes,12,16,6,0,請問第二個字是否停留的時間太久？感覺無需知道第一個字是什麼，只要記住第二個字就可以。如果隨後出現的字和第二個字相同按j，和第二個字不同按f，是否看到第一個字根本不重要。,3,Male,中文，英語,沒有問題。,5faefcc22be93b11829e84df,Firefox,Mac,1117,1728,5.41805,
7,condition1,1,提,提,f,2324,44,市,phon-phon,[],28,Yes,12,16,6,0,請問第二個字是否停留的時間太久？感覺無需知道第一個字是什麼，只要記住第二個字就可以。如果隨後出現的字和第二個字相同按j，和第二個字不同按f，是否看到第一個字根本不重要。,3,Male,中文，英語,沒有問題。,5faefcc22be93b11829e84df,Firefox,Mac,1117,1728,5.41805,
7,condition1,1,壯,壯,f,3276,45,另,con,[],28,Yes,12,16,6,0,請問第二個字是否停留的時間太久？感覺無需知道第一個字是什麼，只要記住第二個字就可以。如果隨後出現的字和第二個字相同按j，和第二個字不同按f，是否看到第一個字根本不重要。,3,Male,中文，英語,沒有問題。,5faefcc22be93b11829e84df,Firefox,Mac,1117,1728,5.41805,
7,condition1,2,孩,侵,j,2119,46,侵,con,[],28,Yes,12,16,6,0,請問第二個字是否停留的時間太久？感覺無需知道第一個字是什麼，只要記住第二個字就可以。如果隨後出現的字和第二個字相同按j，和第二個字不同按f，是否看到第一個字根本不重要。,3,Male,中文，英語,沒有問題。,5faefcc22be93b11829e84df,Firefox,Mac,1117,1728,5.41805,
7,condition1,2,稻,米,j,2069,47,米,sem-sem,[],28,Yes,12,16,6,0,請問第二個字是否停留的時間太久？感覺無需知道第一個字是什麼，只要記住第二個字就可以。如果隨後出現的字和第二個字相同按j，和第二個字不同按f，是否看到第一個字根本不重要。,3,Male,中文，英語,沒有問題。,5faefcc22be93b11829e84df,Firefox,Mac,1117,1728,5.41805,
7,condition1,2,廁,所,j,2145,48,所,sem-sem,[],28,Yes,12,16,6,0,請問第二個字是否停留的時間太久？感覺無需知道第一個字是什麼，只要記住第二個字就可以。如果隨後出現的字和第二個字相同按j，和第二個字不同按f，是否看到第一個字根本不重要。,3,Male,中文，英語,沒有問題。,5faefcc22be93b11829e84df,Firefox,Mac,1117,1728,5.41805,
7,condition1,1,軸,軸,f,2281,49,階,con,[],28,Yes,12,16,6,0,請問第二個字是否停留的時間太久？感覺無需知道第一個字是什麼，只要記住第二個字就可以。如果隨後出現的字和第二個字相同按j，和第二個字不同按f，是否看到第一個字根本不重要。,3,Male,中文，英語,沒有問題。,5faefcc22be93b11829e84df,Firefox,Mac,1117,1728,5.41805,
7,condition1,2,形,再,j,2081,50,再,con,[],28,Yes,12,16,6,0,請問第二個字是否停留的時間太久？感覺無需知道第一個字是什麼，只要記住第二個字就可以。如果隨後出現的字和第二個字相同按j，和第二個字不同按f，是否看到第一個字根本不重要。,3,Male,中文，英語,沒有問題。,5faefcc22be93b11829e84df,Firefox,Mac,1117,1728,5.41805,
7,condition1,1,邦,邦,f,2282,52,鎖,con,[],28,Yes,12,16,6,0,請問第二個字是否停留的時間太久？感覺無需知道第一個字是什麼，只要記住第二個字就可以。如果隨後出現的字和第二個字相同按j，和第二個字不同按f，是否看到第一個字根本不重要。,3,Male,中文，英語,沒有問題。,5faefcc22be93b11829e84df,Firefox,Mac,1117,1728,5.41805,
7,condition1,1,綜,綜,f,2291,53,教,phon-sem,[],28,Yes,12,16,6,0,請問第二個字是否停留的時間太久？感覺無需知道第一個字是什麼，只要記住第二個字就可以。如果隨後出現的字和第二個字相同按j，和第二個字不同按f，是否看到第一個字根本不重要。,3,Male,中文，英語,沒有問題。,5faefcc22be93b11829e84df,Firefox,Mac,1117,1728,5.41805,
7,condition1,2,傢,人,j,2120,54,人,phon-sem,[],28,Yes,12,16,6,0,請問第二個字是否停留的時間太久？感覺無需知道第一個字是什麼，只要記住第二個字就可以。如果隨後出現的字和第二個字相同按j，和第二個字不同按f，是否看到第一個字根本不重要。,3,Male,中文，英語,沒有問題。,5faefcc22be93b11829e84df,Firefox,Mac,1117,1728,5.41805,
7,condition1,2,稀,望,j,2073,55,望,phon-sem,[],28,Yes,12,16,6,0,請問第二個字是否停留的時間太久？感覺無需知道第一個字是什麼，只要記住第二個字就可以。如果隨後出現的字和第二個字相同按j，和第二個字不同按f，是否看到第一個字根本不重要。,3,Male,中文，英語,沒有問題。,5faefcc22be93b11829e84df,Firefox,Mac,1117,1728,5.41805,
7,condition1,2,陀,他,j,2100,56,他,phon-phon,[],28,Yes,12,16,6,0,請問第二個字是否停留的時間太久？感覺無需知道第一個字是什麼，只要記住第二個字就可以。如果隨後出現的字和第二個字相同按j，和第二個字不同按f，是否看到第一個字根本不重要。,3,Male,中文，英語,沒有問題。,5faefcc22be93b11829e84df,Firefox,Mac,1117,1728,5.41805,
7,condition1,1,遂,遂,f,2322,57,喝,con,[],28,Yes,12,16,6,0,請問第二個字是否停留的時間太久？感覺無需知道第一個字是什麼，只要記住第二個字就可以。如果隨後出現的字和第二個字相同按j，和第二個字不同按f，是否看到第一個字根本不重要。,3,Male,中文，英語,沒有問題。,5faefcc22be93b11829e84df,Firefox,Mac,1117,1728,5.41805,
7,condition1,2,拯,救,j,2192,58,救,sem-sem,[],28,Yes,12,16,6,0,請問第二個字是否停留的時間太久？感覺無需知道第一個字是什麼，只要記住第二個字就可以。如果隨後出現的字和第二個字相同按j，和第二個字不同按f，是否看到第一個字根本不重要。,3,Male,中文，英語,沒有問題。,5faefcc22be93b11829e84df,Firefox,Mac,1117,1728,5.41805,
7,condition1,1,烤,烤,f,2160,59,試,phon-sem,[],28,Yes,12,16,6,0,請問第二個字是否停留的時間太久？感覺無需知道第一個字是什麼，只要記住第二個字就可以。如果隨後出現的字和第二個字相同按j，和第二個字不同按f，是否看到第一個字根本不重要。,3,Male,中文，英語,沒有問題。,5faefcc22be93b11829e84df,Firefox,Mac,1117,1728,5.41805,
7,condition1,1,漢,漢,f,2234,60,隔,con,[],28,Yes,12,16,6,0,請問第二個字是否停留的時間太久？感覺無需知道第一個字是什麼，只要記住第二個字就可以。如果隨後出現的字和第二個字相同按j，和第二個字不同按f，是否看到第一個字根本不重要。,3,Male,中文，英語,沒有問題。,5faefcc22be93b11829e84df,Firefox,Mac,1117,1728,5.41805,
7,condition1,2,擅,廉,j,2295,61,廉,con,[],28,Yes,12,16,6,0,請問第二個字是否停留的時間太久？感覺無需知道第一個字是什麼，只要記住第二個字就可以。如果隨後出現的字和第二個字相同按j，和第二個字不同按f，是否看到第一個字根本不重要。,3,Male,中文，英語,沒有問題。,5faefcc22be93b11829e84df,Firefox,Mac,1117,1728,5.41805,
7,condition1,1,饑,饑,j,2086,62,餓,sem-sem,[],28,Yes,12,16,6,0,請問第二個字是否停留的時間太久？感覺無需知道第一個字是什麼，只要記住第二個字就可以。如果隨後出現的字和第二個字相同按j，和第二個字不同按f，是否看到第一個字根本不重要。,3,Male,中文，英語,沒有問題。,5faefcc22be93b11829e84df,Firefox,Mac,1117,1728,5.41805,
7,condition1,2,擁,賞,j,2083,63,賞,con,[],28,Yes,12,16,6,0,請問第二個字是否停留的時間太久？感覺無需知道第一個字是什麼，只要記住第二個字就可以。如果隨後出現的字和第二個字相同按j，和第二個字不同按f，是否看到第一個字根本不重要。,3,Male,中文，英語,沒有問題。,5faefcc22be93b11829e84df,Firefox,Mac,1117,1728,5.41805,
7,condition1,2,滑,谷,j,2119,64,谷,phon-phon,[],28,Yes,12,16,6,0,請問第二個字是否停留的時間太久？感覺無需知道第一個字是什麼，只要記住第二個字就可以。如果隨後出現的字和第二個字相同按j，和第二個字不同按f，是否看到第一個字根本不重要。,3,Male,中文，英語,沒有問題。,5faefcc22be93b11829e84df,Firefox,Mac,1117,1728,5.41805,
7,condition1,1,宜,宜,f,2405,65,其,con,[],28,Yes,12,16,6,0,請問第二個字是否停留的時間太久？感覺無需知道第一個字是什麼，只要記住第二個字就可以。如果隨後出現的字和第二個字相同按j，和第二個字不同按f，是否看到第一個字根本不重要。,3,Male,中文，英語,沒有問題。,5faefcc22be93b11829e84df,Firefox,Mac,1117,1728,5.41805,
7,condition1,2,尷,尬,j,2156,66,尬,sem-sem,[],28,Yes,12,16,6,0,請問第二個字是否停留的時間太久？感覺無需知道第一個字是什麼，只要記住第二個字就可以。如果隨後出現的字和第二個字相同按j，和第二個字不同按f，是否看到第一個字根本不重要。,3,Male,中文，英語,沒有問題。,5faefcc22be93b11829e84df,Firefox,Mac,1117,1728,5.41805,
7,condition1,1,黎,黎,f,2109,67,彬,con,[],28,Yes,12,16,6,0,請問第二個字是否停留的時間太久？感覺無需知道第一個字是什麼，只要記住第二個字就可以。如果隨後出現的字和第二個字相同按j，和第二個字不同按f，是否看到第一個字根本不重要。,3,Male,中文，英語,沒有問題。,5faefcc22be93b11829e84df,Firefox,Mac,1117,1728,5.41805,
7,condition1,1,惶,惶,f,2157,68,帝,phon-sem,[],28,Yes,12,16,6,0,請問第二個字是否停留的時間太久？感覺無需知道第一個字是什麼，只要記住第二個字就可以。如果隨後出現的字和第二個字相同按j，和第二個字不同按f，是否看到第一個字根本不重要。,3,Male,中文，英語,沒有問題。,5faefcc22be93b11829e84df,Firefox,Mac,1117,1728,5.41805,
7,condition1,2,浪,涼,j,2156,69,涼,phon-phon,[],28,Yes,12,16,6,0,請問第二個字是否停留的時間太久？感覺無需知道第一個字是什麼，只要記住第二個字就可以。如果隨後出現的字和第二個字相同按j，和第二個字不同按f，是否看到第一個字根本不重要。,3,Male,中文，英語,沒有問題。,5faefcc22be93b11829e84df,Firefox,Mac,1117,1728,5.41805,
7,condition1,1,審,審,f,2315,70,判,sem-sem,[],28,Yes,12,16,6,0,請問第二個字是否停留的時間太久？感覺無需知道第一個字是什麼，只要記住第二個字就可以。如果隨後出現的字和第二個字相同按j，和第二個字不同按f，是否看到第一個字根本不重要。,3,Male,中文，英語,沒有問題。,5faefcc22be93b11829e84df,Firefox,Mac,1117,1728,5.41805,
7,condition1,2,結,即,j,2207,71,即,phon-phon,[],28,Yes,12,16,6,0,請問第二個字是否停留的時間太久？感覺無需知道第一個字是什麼，只要記住第二個字就可以。如果隨後出現的字和第二個字相同按j，和第二個字不同按f，是否看到第一個字根本不重要。,3,Male,中文，英語,沒有問題。,5faefcc22be93b11829e84df,Firefox,Mac,1117,1728,5.41805,
7,condition1,1,余,余,f,2230,72,別,con,[],28,Yes,12,16,6,0,請問第二個字是否停留的時間太久？感覺無需知道第一個字是什麼，只要記住第二個字就可以。如果隨後出現的字和第二個字相同按j，和第二個字不同按f，是否看到第一個字根本不重要。,3,Male,中文，英語,沒有問題。,5faefcc22be93b11829e84df,Firefox,Mac,1117,1728,5.41805,
7,condition1,1,棋,棋,f,2267,73,實,phon-sem,[],28,Yes,12,16,6,0,請問第二個字是否停留的時間太久？感覺無需知道第一個字是什麼，只要記住第二個字就可以。如果隨後出現的字和第二個字相同按j，和第二個字不同按f，是否看到第一個字根本不重要。,3,Male,中文，英語,沒有問題。,5faefcc22be93b11829e84df,Firefox,Mac,1117,1728,5.41805,
7,condition1,1,億,億,f,2228,74,義,phon-sem,[],28,Yes,12,16,6,0,請問第二個字是否停留的時間太久？感覺無需知道第一個字是什麼，只要記住第二個字就可以。如果隨後出現的字和第二個字相同按j，和第二個字不同按f，是否看到第一個字根本不重要。,3,Male,中文，英語,沒有問題。,5faefcc22be93b11829e84df,Firefox,Mac,1117,1728,5.41805,
7,condition1,1,溶,溶,f,2212,75,易,phon-sem,[],28,Yes,12,16,6,0,請問第二個字是否停留的時間太久？感覺無需知道第一個字是什麼，只要記住第二個字就可以。如果隨後出現的字和第二個字相同按j，和第二個字不同按f，是否看到第一個字根本不重要。,3,Male,中文，英語,沒有問題。,5faefcc22be93b11829e84df,Firefox,Mac,1117,1728,5.41805,
7,condition1,2,攤,南,f,2185,76,南,phon-phon,[],28,Yes,12,16,6,0,請問第二個字是否停留的時間太久？感覺無需知道第一個字是什麼，只要記住第二個字就可以。如果隨後出現的字和第二個字相同按j，和第二個字不同按f，是否看到第一個字根本不重要。,3,Male,中文，英語,沒有問題。,5faefcc22be93b11829e84df,Firefox,Mac,1117,1728,5.41805,
7,condition1,1,雖,雖,f,2500,77,營,con,[],28,Yes,12,16,6,0,請問第二個字是否停留的時間太久？感覺無需知道第一個字是什麼，只要記住第二個字就可以。如果隨後出現的字和第二個字相同按j，和第二個字不同按f，是否看到第一個字根本不重要。,3,Male,中文，英語,沒有問題。,5faefcc22be93b11829e84df,Firefox,Mac,1117,1728,5.41805,
7,condition1,2,那,飛,j,2607,78,飛,con,[],28,Yes,12,16,6,0,請問第二個字是否停留的時間太久？感覺無需知道第一個字是什麼，只要記住第二個字就可以。如果隨後出現的字和第二個字相同按j，和第二個字不同按f，是否看到第一個字根本不重要。,3,Male,中文，英語,沒有問題。,5faefcc22be93b11829e84df,Firefox,Mac,1117,1728,5.41805,
7,condition1,2,梯,帝,j,2670,79,帝,phon-phon,[],28,Yes,12,16,6,0,請問第二個字是否停留的時間太久？感覺無需知道第一個字是什麼，只要記住第二個字就可以。如果隨後出現的字和第二個字相同按j，和第二個字不同按f，是否看到第一個字根本不重要。,3,Male,中文，英語,沒有問題。,5faefcc22be93b11829e84df,Firefox,Mac,1117,1728,5.41805,
7,condition1,1,遲,遲,f,2306,80,夕,phon-phon,[],28,Yes,12,16,6,0,請問第二個字是否停留的時間太久？感覺無需知道第一個字是什麼，只要記住第二個字就可以。如果隨後出現的字和第二個字相同按j，和第二個字不同按f，是否看到第一個字根本不重要。,3,Male,中文，英語,沒有問題。,5faefcc22be93b11829e84df,Firefox,Mac,1117,1728,5.41805,
7,condition1,2,炸,查,j,2422,81,查,con,[],28,Yes,12,16,6,0,請問第二個字是否停留的時間太久？感覺無需知道第一個字是什麼，只要記住第二個字就可以。如果隨後出現的字和第二個字相同按j，和第二個字不同按f，是否看到第一個字根本不重要。,3,Male,中文，英語,沒有問題。,5faefcc22be93b11829e84df,Firefox,Mac,1117,1728,5.41805,
7,condition1,2,檔,諾,j,2074,82,諾,con,[],28,Yes,12,16,6,0,請問第二個字是否停留的時間太久？感覺無需知道第一個字是什麼，只要記住第二個字就可以。如果隨後出現的字和第二個字相同按j，和第二個字不同按f，是否看到第一個字根本不重要。,3,Male,中文，英語,沒有問題。,5faefcc22be93b11829e84df,Firefox,Mac,1117,1728,5.41805,
7,condition1,2,餵,懼,j,2118,83,懼,phon-sem,[],28,Yes,12,16,6,0,請問第二個字是否停留的時間太久？感覺無需知道第一個字是什麼，只要記住第二個字就可以。如果隨後出現的字和第二個字相同按j，和第二個字不同按f，是否看到第一個字根本不重要。,3,Male,中文，英語,沒有問題。,5faefcc22be93b11829e84df,Firefox,Mac,1117,1728,5.41805,
7,condition1,2,暗,因,j,2089,84,因,phon-phon,[],28,Yes,12,16,6,0,請問第二個字是否停留的時間太久？感覺無需知道第一個字是什麼，只要記住第二個字就可以。如果隨後出現的字和第二個字相同按j，和第二個字不同按f，是否看到第一個字根本不重要。,3,Male,中文，英語,沒有問題。,5faefcc22be93b11829e84df,Firefox,Mac,1117,1728,5.41805,
7,condition1,1,銘,銘,f,2224,85,字,phon-sem,[],28,Yes,12,16,6,0,請問第二個字是否停留的時間太久？感覺無需知道第一個字是什麼，只要記住第二個字就可以。如果隨後出現的字和第二個字相同按j，和第二個字不同按f，是否看到第一個字根本不重要。,3,Male,中文，英語,沒有問題。,5faefcc22be93b11829e84df,Firefox,Mac,1117,1728,5.41805,
7,condition1,1,黑,黑,f,2096,86,白,sem-sem,[],28,Yes,12,16,6,0,請問第二個字是否停留的時間太久？感覺無需知道第一個字是什麼，只要記住第二個字就可以。如果隨後出現的字和第二個字相同按j，和第二個字不同按f，是否看到第一個字根本不重要。,3,Male,中文，英語,沒有問題。,5faefcc22be93b11829e84df,Firefox,Mac,1117,1728,5.41805,
7,condition1,2,簡,單,j,2196,87,單,sem-sem,[],28,Yes,12,16,6,0,請問第二個字是否停留的時間太久？感覺無需知道第一個字是什麼，只要記住第二個字就可以。如果隨後出現的字和第二個字相同按j，和第二個字不同按f，是否看到第一個字根本不重要。,3,Male,中文，英語,沒有問題。,5faefcc22be93b11829e84df,Firefox,Mac,1117,1728,5.41805,
7,condition1,1,晚,晚,f,2618,88,勉,phon-phon,[],28,Yes,12,16,6,0,請問第二個字是否停留的時間太久？感覺無需知道第一個字是什麼，只要記住第二個字就可以。如果隨後出現的字和第二個字相同按j，和第二個字不同按f，是否看到第一個字根本不重要。,3,Male,中文，英語,沒有問題。,5faefcc22be93b11829e84df,Firefox,Mac,1117,1728,5.41805,
7,condition1,2,婚,迷,j,2396,89,迷,phon-sem,[],28,Yes,12,16,6,0,請問第二個字是否停留的時間太久？感覺無需知道第一個字是什麼，只要記住第二個字就可以。如果隨後出現的字和第二個字相同按j，和第二個字不同按f，是否看到第一個字根本不重要。,3,Male,中文，英語,沒有問題。,5faefcc22be93b11829e84df,Firefox,Mac,1117,1728,5.41805,
7,condition1,2,勵,害,j,2146,90,害,phon-sem,[],28,Yes,12,16,6,0,請問第二個字是否停留的時間太久？感覺無需知道第一個字是什麼，只要記住第二個字就可以。如果隨後出現的字和第二個字相同按j，和第二個字不同按f，是否看到第一個字根本不重要。,3,Male,中文，英語,沒有問題。,5faefcc22be93b11829e84df,Firefox,Mac,1117,1728,5.41805,
7,condition1,2,眠,務,j,2201,91,務,con,[],28,Yes,12,16,6,0,請問第二個字是否停留的時間太久？感覺無需知道第一個字是什麼，只要記住第二個字就可以。如果隨後出現的字和第二個字相同按j，和第二個字不同按f，是否看到第一個字根本不重要。,3,Male,中文，英語,沒有問題。,5faefcc22be93b11829e84df,Firefox,Mac,1117,1728,5.41805,
7,condition1,1,叫,叫,f,2246,92,六,con,[],28,Yes,12,16,6,0,請問第二個字是否停留的時間太久？感覺無需知道第一個字是什麼，只要記住第二個字就可以。如果隨後出現的字和第二個字相同按j，和第二個字不同按f，是否看到第一個字根本不重要。,3,Male,中文，英語,沒有問題。,5faefcc22be93b11829e84df,Firefox,Mac,1117,1728,5.41805,
7,condition1,1,企,企,f,2963,93,天,con,[],28,Yes,12,16,6,0,請問第二個字是否停留的時間太久？感覺無需知道第一個字是什麼，只要記住第二個字就可以。如果隨後出現的字和第二個字相同按j，和第二個字不同按f，是否看到第一個字根本不重要。,3,Male,中文，英語,沒有問題。,5faefcc22be93b11829e84df,Firefox,Mac,1117,1728,5.41805,
7,condition1,2,喜,歡,j,3317,94,歡,sem-sem,[],28,Yes,12,16,6,0,請問第二個字是否停留的時間太久？感覺無需知道第一個字是什麼，只要記住第二個字就可以。如果隨後出現的字和第二個字相同按j，和第二個字不同按f，是否看到第一個字根本不重要。,3,Male,中文，英語,沒有問題。,5faefcc22be93b11829e84df,Firefox,Mac,1117,1728,5.41805,
7,condition1,1,遵,遵,f,2240,95,重,phon-sem,[],28,Yes,12,16,6,0,請問第二個字是否停留的時間太久？感覺無需知道第一個字是什麼，只要記住第二個字就可以。如果隨後出現的字和第二個字相同按j，和第二個字不同按f，是否看到第一個字根本不重要。,3,Male,中文，英語,沒有問題。,5faefcc22be93b11829e84df,Firefox,Mac,1117,1728,5.41805,
7,condition1,2,擾,悠,j,2658,96,悠,phon-phon,[],28,Yes,12,16,6,0,請問第二個字是否停留的時間太久？感覺無需知道第一個字是什麼，只要記住第二個字就可以。如果隨後出現的字和第二個字相同按j，和第二個字不同按f，是否看到第一個字根本不重要。,3,Male,中文，英語,沒有問題。,5faefcc22be93b11829e84df,Firefox,Mac,1117,1728,5.41805,
7,condition1,2,羨,慕,j,2204,97,慕,sem-sem,[],28,Yes,12,16,6,0,請問第二個字是否停留的時間太久？感覺無需知道第一個字是什麼，只要記住第二個字就可以。如果隨後出現的字和第二個字相同按j，和第二個字不同按f，是否看到第一個字根本不重要。,3,Male,中文，英語,沒有問題。,5faefcc22be93b11829e84df,Firefox,Mac,1117,1728,5.41805,
7,condition1,1,諷,諷,f,2239,98,刺,sem-sem,[],28,Yes,12,16,6,0,請問第二個字是否停留的時間太久？感覺無需知道第一個字是什麼，只要記住第二個字就可以。如果隨後出現的字和第二個字相同按j，和第二個字不同按f，是否看到第一個字根本不重要。,3,Male,中文，英語,沒有問題。,5faefcc22be93b11829e84df,Firefox,Mac,1117,1728,5.41805,
7,condition1,2,健,立,j,2498,99,立,phon-sem,[],28,Yes,12,16,6,0,請問第二個字是否停留的時間太久？感覺無需知道第一個字是什麼，只要記住第二個字就可以。如果隨後出現的字和第二個字相同按j，和第二個字不同按f，是否看到第一個字根本不重要。,3,Male,中文，英語,沒有問題。,5faefcc22be93b11829e84df,Firefox,Mac,1117,1728,5.41805,
7,condition1,1,邏,邏,f,2384,100,輯,sem-sem,[],28,Yes,12,16,6,0,請問第二個字是否停留的時間太久？感覺無需知道第一個字是什麼，只要記住第二個字就可以。如果隨後出現的字和第二個字相同按j，和第二個字不同按f，是否看到第一個字根本不重要。,3,Male,中文，英語,沒有問題。,5faefcc22be93b11829e84df,Firefox,Mac,1117,1728,5.41805,
7,condition1,2,汐,陽,j,2745,102,陽,phon-sem,[],28,Yes,12,16,6,0,請問第二個字是否停留的時間太久？感覺無需知道第一個字是什麼，只要記住第二個字就可以。如果隨後出現的字和第二個字相同按j，和第二個字不同按f，是否看到第一個字根本不重要。,3,Male,中文，英語,沒有問題。,5faefcc22be93b11829e84df,Firefox,Mac,1117,1728,5.41805,
7,condition1,2,準,腦,j,2136,103,腦,con,[],28,Yes,12,16,6,0,請問第二個字是否停留的時間太久？感覺無需知道第一個字是什麼，只要記住第二個字就可以。如果隨後出現的字和第二個字相同按j，和第二個字不同按f，是否看到第一個字根本不重要。,3,Male,中文，英語,沒有問題。,5faefcc22be93b11829e84df,Firefox,Mac,1117,1728,5.41805,
7,condition1,1,楣,楣,f,2269,104,毛,phon-sem,[],28,Yes,12,16,6,0,請問第二個字是否停留的時間太久？感覺無需知道第一個字是什麼，只要記住第二個字就可以。如果隨後出現的字和第二個字相同按j，和第二個字不同按f，是否看到第一個字根本不重要。,3,Male,中文，英語,沒有問題。,5faefcc22be93b11829e84df,Firefox,Mac,1117,1728,5.41805,
7,condition1,2,讀,邁,j,2138,105,邁,phon-phon,[],28,Yes,12,16,6,0,請問第二個字是否停留的時間太久？感覺無需知道第一個字是什麼，只要記住第二個字就可以。如果隨後出現的字和第二個字相同按j，和第二個字不同按f，是否看到第一個字根本不重要。,3,Male,中文，英語,沒有問題。,5faefcc22be93b11829e84df,Firefox,Mac,1117,1728,5.41805,
7,condition1,1,繪,繪,f,2331,106,港,con,[],28,Yes,12,16,6,0,請問第二個字是否停留的時間太久？感覺無需知道第一個字是什麼，只要記住第二個字就可以。如果隨後出現的字和第二個字相同按j，和第二個字不同按f，是否看到第一個字根本不重要。,3,Male,中文，英語,沒有問題。,5faefcc22be93b11829e84df,Firefox,Mac,1117,1728,5.41805,
7,condition1,2,搔,癢,j,2221,107,癢,sem-sem,[],28,Yes,12,16,6,0,請問第二個字是否停留的時間太久？感覺無需知道第一個字是什麼，只要記住第二個字就可以。如果隨後出現的字和第二個字相同按j，和第二個字不同按f，是否看到第一個字根本不重要。,3,Male,中文，英語,沒有問題。,5faefcc22be93b11829e84df,Firefox,Mac,1117,1728,5.41805,
7,condition1,1,財,財,f,2229,108,能,phon-sem,[],28,Yes,12,16,6,0,請問第二個字是否停留的時間太久？感覺無需知道第一個字是什麼，只要記住第二個字就可以。如果隨後出現的字和第二個字相同按j，和第二個字不同按f，是否看到第一個字根本不重要。,3,Male,中文，英語,沒有問題。,5faefcc22be93b11829e84df,Firefox,Mac,1117,1728,5.41805,
7,condition1,2,湧,敢,j,2135,109,敢,phon-sem,[],28,Yes,12,16,6,0,請問第二個字是否停留的時間太久？感覺無需知道第一個字是什麼，只要記住第二個字就可以。如果隨後出現的字和第二個字相同按j，和第二個字不同按f，是否看到第一個字根本不重要。,3,Male,中文，英語,沒有問題。,5faefcc22be93b11829e84df,Firefox,Mac,1117,1728,5.41805,
7,condition1,1,緊,緊,f,2561,110,張,sem-sem,[],28,Yes,12,16,6,0,請問第二個字是否停留的時間太久？感覺無需知道第一個字是什麼，只要記住第二個字就可以。如果隨後出現的字和第二個字相同按j，和第二個字不同按f，是否看到第一個字根本不重要。,3,Male,中文，英語,沒有問題。,5faefcc22be93b11829e84df,Firefox,Mac,1117,1728,5.41805,
7,condition1,2,楓,雨,j,2521,111,雨,phon-sem,[],28,Yes,12,16,6,0,請問第二個字是否停留的時間太久？感覺無需知道第一個字是什麼，只要記住第二個字就可以。如果隨後出現的字和第二個字相同按j，和第二個字不同按f，是否看到第一個字根本不重要。,3,Male,中文，英語,沒有問題。,5faefcc22be93b11829e84df,Firefox,Mac,1117,1728,5.41805,
7,condition1,1,燈,燈,f,2643,112,山,phon-sem,[],28,Yes,12,16,6,0,請問第二個字是否停留的時間太久？感覺無需知道第一個字是什麼，只要記住第二個字就可以。如果隨後出現的字和第二個字相同按j，和第二個字不同按f，是否看到第一個字根本不重要。,3,Male,中文，英語,沒有問題。,5faefcc22be93b11829e84df,Firefox,Mac,1117,1728,5.41805,
7,condition1,1,儒,儒,f,2203,113,須,phon-phon,[],28,Yes,12,16,6,0,請問第二個字是否停留的時間太久？感覺無需知道第一個字是什麼，只要記住第二個字就可以。如果隨後出現的字和第二個字相同按j，和第二個字不同按f，是否看到第一個字根本不重要。,3,Male,中文，英語,沒有問題。,5faefcc22be93b11829e84df,Firefox,Mac,1117,1728,5.41805,
7,condition1,1,濃,濃,f,2239,114,田,phon-sem,[],28,Yes,12,16,6,0,請問第二個字是否停留的時間太久？感覺無需知道第一個字是什麼，只要記住第二個字就可以。如果隨後出現的字和第二個字相同按j，和第二個字不同按f，是否看到第一個字根本不重要。,3,Male,中文，英語,沒有問題。,5faefcc22be93b11829e84df,Firefox,Mac,1117,1728,5.41805,
7,condition1,1,胸,胸,f,2871,115,奴,phon-sem,[],28,Yes,12,16,6,0,請問第二個字是否停留的時間太久？感覺無需知道第一個字是什麼，只要記住第二個字就可以。如果隨後出現的字和第二個字相同按j，和第二個字不同按f，是否看到第一個字根本不重要。,3,Male,中文，英語,沒有問題。,5faefcc22be93b11829e84df,Firefox,Mac,1117,1728,5.41805,
7,condition1,1,觸,觸,f,2424,116,屬,phon-phon,[],28,Yes,12,16,6,0,請問第二個字是否停留的時間太久？感覺無需知道第一個字是什麼，只要記住第二個字就可以。如果隨後出現的字和第二個字相同按j，和第二個字不同按f，是否看到第一個字根本不重要。,3,Male,中文，英語,沒有問題。,5faefcc22be93b11829e84df,Firefox,Mac,1117,1728,5.41805,
7,condition1,1,瑰,瑰,f,2478,117,殺,con,[],28,Yes,12,16,6,0,請問第二個字是否停留的時間太久？感覺無需知道第一個字是什麼，只要記住第二個字就可以。如果隨後出現的字和第二個字相同按j，和第二個字不同按f，是否看到第一個字根本不重要。,3,Male,中文，英語,沒有問題。,5faefcc22be93b11829e84df,Firefox,Mac,1117,1728,5.41805,
7,condition1,1,剪,剪,f,2061,118,刀,sem-sem,[],28,Yes,12,16,6,0,請問第二個字是否停留的時間太久？感覺無需知道第一個字是什麼，只要記住第二個字就可以。如果隨後出現的字和第二個字相同按j，和第二個字不同按f，是否看到第一個字根本不重要。,3,Male,中文，英語,沒有問題。,5faefcc22be93b11829e84df,Firefox,Mac,1117,1728,5.41805,
7,condition1,2,板,翻,j,2179,119,翻,phon-phon,[],28,Yes,12,16,6,0,請問第二個字是否停留的時間太久？感覺無需知道第一個字是什麼，只要記住第二個字就可以。如果隨後出現的字和第二個字相同按j，和第二個字不同按f，是否看到第一個字根本不重要。,3,Male,中文，英語,沒有問題。,5faefcc22be93b11829e84df,Firefox,Mac,1117,1728,5.41805,
7,condition1,2,壢,史,j,2076,120,史,phon-sem,[],28,Yes,12,16,6,0,請問第二個字是否停留的時間太久？感覺無需知道第一個字是什麼，只要記住第二個字就可以。如果隨後出現的字和第二個字相同按j，和第二個字不同按f，是否看到第一個字根本不重要。,3,Male,中文，英語,沒有問題。,5faefcc22be93b11829e84df,Firefox,Mac,1117,1728,5.41805,
7,condition1,1,源,源,f,2137,121,因,phon-sem,[],28,Yes,12,16,6,0,請問第二個字是否停留的時間太久？感覺無需知道第一個字是什麼，只要記住第二個字就可以。如果隨後出現的字和第二個字相同按j，和第二個字不同按f，是否看到第一個字根本不重要。,3,Male,中文，英語,沒有問題。,5faefcc22be93b11829e84df,Firefox,Mac,1117,1728,5.41805,
7,condition1,1,藥,藥,f,2336,122,邀,con,[],28,Yes,12,16,6,0,請問第二個字是否停留的時間太久？感覺無需知道第一個字是什麼，只要記住第二個字就可以。如果隨後出現的字和第二個字相同按j，和第二個字不同按f，是否看到第一個字根本不重要。,3,Male,中文，英語,沒有問題。,5faefcc22be93b11829e84df,Firefox,Mac,1117,1728,5.41805,
7,condition1,1,畢,畢,f,2410,123,業,sem-sem,[],28,Yes,12,16,6,0,請問第二個字是否停留的時間太久？感覺無需知道第一個字是什麼，只要記住第二個字就可以。如果隨後出現的字和第二個字相同按j，和第二個字不同按f，是否看到第一個字根本不重要。,3,Male,中文，英語,沒有問題。,5faefcc22be93b11829e84df,Firefox,Mac,1117,1728,5.41805,
7,condition1,1,司,司,f,2474,124,進,con,[],28,Yes,12,16,6,0,請問第二個字是否停留的時間太久？感覺無需知道第一個字是什麼，只要記住第二個字就可以。如果隨後出現的字和第二個字相同按j，和第二個字不同按f，是否看到第一個字根本不重要。,3,Male,中文，英語,沒有問題。,5faefcc22be93b11829e84df,Firefox,Mac,1117,1728,5.41805,
7,condition1,1,村,村,f,2164,125,即,con,[],28,Yes,12,16,6,0,請問第二個字是否停留的時間太久？感覺無需知道第一個字是什麼，只要記住第二個字就可以。如果隨後出現的字和第二個字相同按j，和第二個字不同按f，是否看到第一個字根本不重要。,3,Male,中文，英語,沒有問題。,5faefcc22be93b11829e84df,Firefox,Mac,1117,1728,5.41805,
7,condition1,1,鏗,鏗,f,2186,126,間,phon-phon,[],28,Yes,12,16,6,0,請問第二個字是否停留的時間太久？感覺無需知道第一個字是什麼，只要記住第二個字就可以。如果隨後出現的字和第二個字相同按j，和第二個字不同按f，是否看到第一個字根本不重要。,3,Male,中文，英語,沒有問題。,5faefcc22be93b11829e84df,Firefox,Mac,1117,1728,5.41805,
7,condition1,1,擺,擺,f,2284,127,霸,phon-phon,[],28,Yes,12,16,6,0,請問第二個字是否停留的時間太久？感覺無需知道第一個字是什麼，只要記住第二個字就可以。如果隨後出現的字和第二個字相同按j，和第二個字不同按f，是否看到第一個字根本不重要。,3,Male,中文，英語,沒有問題。,5faefcc22be93b11829e84df,Firefox,Mac,1117,1728,5.41805,
7,condition1,1,渡,渡,f,2269,128,量,phon-sem,[],28,Yes,12,16,6,0,請問第二個字是否停留的時間太久？感覺無需知道第一個字是什麼，只要記住第二個字就可以。如果隨後出現的字和第二個字相同按j，和第二個字不同按f，是否看到第一個字根本不重要。,3,Male,中文，英語,沒有問題。,5faefcc22be93b11829e84df,Firefox,Mac,1117,1728,5.41805,
7,condition1,2,錶,示,j,2082,129,示,phon-sem,[],28,Yes,12,16,6,0,請問第二個字是否停留的時間太久？感覺無需知道第一個字是什麼，只要記住第二個字就可以。如果隨後出現的字和第二個字相同按j，和第二個字不同按f，是否看到第一個字根本不重要。,3,Male,中文，英語,沒有問題。,5faefcc22be93b11829e84df,Firefox,Mac,1117,1728,5.41805,
7,condition1,2,佑,左,j,2651,130,左,phon-sem,[],28,Yes,12,16,6,0,請問第二個字是否停留的時間太久？感覺無需知道第一個字是什麼，只要記住第二個字就可以。如果隨後出現的字和第二個字相同按j，和第二個字不同按f，是否看到第一個字根本不重要。,3,Male,中文，英語,沒有問題。,5faefcc22be93b11829e84df,Firefox,Mac,1117,1728,5.41805,
7,condition1,2,根,候,j,2065,131,候,con,[],28,Yes,12,16,6,0,請問第二個字是否停留的時間太久？感覺無需知道第一個字是什麼，只要記住第二個字就可以。如果隨後出現的字和第二個字相同按j，和第二個字不同按f，是否看到第一個字根本不重要。,3,Male,中文，英語,沒有問題。,5faefcc22be93b11829e84df,Firefox,Mac,1117,1728,5.41805,
7,condition1,2,極,損,j,2101,132,損,con,[],28,Yes,12,16,6,0,請問第二個字是否停留的時間太久？感覺無需知道第一個字是什麼，只要記住第二個字就可以。如果隨後出現的字和第二個字相同按j，和第二個字不同按f，是否看到第一個字根本不重要。,3,Male,中文，英語,沒有問題。,5faefcc22be93b11829e84df,Firefox,Mac,1117,1728,5.41805,
7,condition1,1,氾,氾,f,2542,133,濫,sem-sem,[],28,Yes,12,16,6,0,請問第二個字是否停留的時間太久？感覺無需知道第一個字是什麼，只要記住第二個字就可以。如果隨後出現的字和第二個字相同按j，和第二個字不同按f，是否看到第一個字根本不重要。,3,Male,中文，英語,沒有問題。,5faefcc22be93b11829e84df,Firefox,Mac,1117,1728,5.41805,
7,condition1,1,線,線,f,2615,134,權,phon-phon,[],28,Yes,12,16,6,0,請問第二個字是否停留的時間太久？感覺無需知道第一個字是什麼，只要記住第二個字就可以。如果隨後出現的字和第二個字相同按j，和第二個字不同按f，是否看到第一個字根本不重要。,3,Male,中文，英語,沒有問題。,5faefcc22be93b11829e84df,Firefox,Mac,1117,1728,5.41805,
7,condition1,1,手,手,f,2299,135,腳,sem-sem,[],28,Yes,12,16,6,0,請問第二個字是否停留的時間太久？感覺無需知道第一個字是什麼，只要記住第二個字就可以。如果隨後出現的字和第二個字相同按j，和第二個字不同按f，是否看到第一個字根本不重要。,3,Male,中文，英語,沒有問題。,5faefcc22be93b11829e84df,Firefox,Mac,1117,1728,5.41805,
7,condition1,2,革,命,j,2564,136,命,sem-sem,[],28,Yes,12,16,6,0,請問第二個字是否停留的時間太久？感覺無需知道第一個字是什麼，只要記住第二個字就可以。如果隨後出現的字和第二個字相同按j，和第二個字不同按f，是否看到第一個字根本不重要。,3,Male,中文，英語,沒有問題。,5faefcc22be93b11829e84df,Firefox,Mac,1117,1728,5.41805,
7,condition1,1,森,森,f,2205,137,林,sem-sem,[],28,Yes,12,16,6,0,請問第二個字是否停留的時間太久？感覺無需知道第一個字是什麼，只要記住第二個字就可以。如果隨後出現的字和第二個字相同按j，和第二個字不同按f，是否看到第一個字根本不重要。,3,Male,中文，英語,沒有問題。,5faefcc22be93b11829e84df,Firefox,Mac,1117,1728,5.41805,
7,condition1,2,程,現,j,2607,138,現,phon-sem,[],28,Yes,12,16,6,0,請問第二個字是否停留的時間太久？感覺無需知道第一個字是什麼，只要記住第二個字就可以。如果隨後出現的字和第二個字相同按j，和第二個字不同按f，是否看到第一個字根本不重要。,3,Male,中文，英語,沒有問題。,5faefcc22be93b11829e84df,Firefox,Mac,1117,1728,5.41805,
7,condition1,2,締,國,j,2258,139,國,phon-sem,[],28,Yes,12,16,6,0,請問第二個字是否停留的時間太久？感覺無需知道第一個字是什麼，只要記住第二個字就可以。如果隨後出現的字和第二個字相同按j，和第二個字不同按f，是否看到第一個字根本不重要。,3,Male,中文，英語,沒有問題。,5faefcc22be93b11829e84df,Firefox,Mac,1117,1728,5.41805,
7,condition1,1,仇,仇,f,2237,140,恨,sem-sem,[],28,Yes,12,16,6,0,請問第二個字是否停留的時間太久？感覺無需知道第一個字是什麼，只要記住第二個字就可以。如果隨後出現的字和第二個字相同按j，和第二個字不同按f，是否看到第一個字根本不重要。,3,Male,中文，英語,沒有問題。,5faefcc22be93b11829e84df,Firefox,Mac,1117,1728,5.41805,
7,condition1,2,離,開,j,2266,141,開,sem-sem,[],28,Yes,12,16,6,0,請問第二個字是否停留的時間太久？感覺無需知道第一個字是什麼，只要記住第二個字就可以。如果隨後出現的字和第二個字相同按j，和第二個字不同按f，是否看到第一個字根本不重要。,3,Male,中文，英語,沒有問題。,5faefcc22be93b11829e84df,Firefox,Mac,1117,1728,5.41805,
7,condition1,1,迅,迅,f,2392,142,速,sem-sem,[],28,Yes,12,16,6,0,請問第二個字是否停留的時間太久？感覺無需知道第一個字是什麼，只要記住第二個字就可以。如果隨後出現的字和第二個字相同按j，和第二個字不同按f，是否看到第一個字根本不重要。,3,Male,中文，英語,沒有問題。,5faefcc22be93b11829e84df,Firefox,Mac,1117,1728,5.41805,
7,condition1,1,詞,詞,f,2808,143,絲,phon-phon,[],28,Yes,12,16,6,0,請問第二個字是否停留的時間太久？感覺無需知道第一個字是什麼，只要記住第二個字就可以。如果隨後出現的字和第二個字相同按j，和第二個字不同按f，是否看到第一個字根本不重要。,3,Male,中文，英語,沒有問題。,5faefcc22be93b11829e84df,Firefox,Mac,1117,1728,5.41805,
7,condition1,2,喧,佈,j,2048,144,佈,phon-sem,[],28,Yes,12,16,6,0,請問第二個字是否停留的時間太久？感覺無需知道第一個字是什麼，只要記住第二個字就可以。如果隨後出現的字和第二個字相同按j，和第二個字不同按f，是否看到第一個字根本不重要。,3,Male,中文，英語,沒有問題。,5faefcc22be93b11829e84df,Firefox,Mac,1117,1728,5.41805,
7,condition1,1,嬰,嬰,f,2204,145,兒,sem-sem,[],28,Yes,12,16,6,0,請問第二個字是否停留的時間太久？感覺無需知道第一個字是什麼，只要記住第二個字就可以。如果隨後出現的字和第二個字相同按j，和第二個字不同按f，是否看到第一個字根本不重要。,3,Male,中文，英語,沒有問題。,5faefcc22be93b11829e84df,Firefox,Mac,1117,1728,5.41805,
7,condition1,1,陌,陌,f,2545,146,擺,phon-phon,[],28,Yes,12,16,6,0,請問第二個字是否停留的時間太久？感覺無需知道第一個字是什麼，只要記住第二個字就可以。如果隨後出現的字和第二個字相同按j，和第二個字不同按f，是否看到第一個字根本不重要。,3,Male,中文，英語,沒有問題。,5faefcc22be93b11829e84df,Firefox,Mac,1117,1728,5.41805,
7,condition1,1,城,城,f,2877,147,功,phon-sem,[],28,Yes,12,16,6,0,請問第二個字是否停留的時間太久？感覺無需知道第一個字是什麼，只要記住第二個字就可以。如果隨後出現的字和第二個字相同按j，和第二個字不同按f，是否看到第一個字根本不重要。,3,Male,中文，英語,沒有問題。,5faefcc22be93b11829e84df,Firefox,Mac,1117,1728,5.41805,
7,condition1,1,梓,梓,f,2431,148,某,con,[],28,Yes,12,16,6,0,請問第二個字是否停留的時間太久？感覺無需知道第一個字是什麼，只要記住第二個字就可以。如果隨後出現的字和第二個字相同按j，和第二個字不同按f，是否看到第一個字根本不重要。,3,Male,中文，英語,沒有問題。,5faefcc22be93b11829e84df,Firefox,Mac,1117,1728,5.41805,
7,condition1,2,個,故,j,3282,149,故,phon-phon,[],28,Yes,12,16,6,0,請問第二個字是否停留的時間太久？感覺無需知道第一個字是什麼，只要記住第二個字就可以。如果隨後出現的字和第二個字相同按j，和第二個字不同按f，是否看到第一個字根本不重要。,3,Male,中文，英語,沒有問題。,5faefcc22be93b11829e84df,Firefox,Mac,1117,1728,5.41805,
7,condition1,2,虐,待,j,2427,150,待,sem-sem,[],28,Yes,12,16,6,0,請問第二個字是否停留的時間太久？感覺無需知道第一個字是什麼，只要記住第二個字就可以。如果隨後出現的字和第二個字相同按j，和第二個字不同按f，是否看到第一個字根本不重要。,3,Male,中文，英語,沒有問題。,5faefcc22be93b11829e84df,Firefox,Mac,1117,1728,5.41805,
7,condition1,1,摺,摺,f,2112,152,席,phon-phon,[],28,Yes,12,16,6,0,請問第二個字是否停留的時間太久？感覺無需知道第一個字是什麼，只要記住第二個字就可以。如果隨後出現的字和第二個字相同按j，和第二個字不同按f，是否看到第一個字根本不重要。,3,Male,中文，英語,沒有問題。,5faefcc22be93b11829e84df,Firefox,Mac,1117,1728,5.41805,
7,condition1,1,螺,螺,f,2265,153,類,phon-phon,[],28,Yes,12,16,6,0,請問第二個字是否停留的時間太久？感覺無需知道第一個字是什麼，只要記住第二個字就可以。如果隨後出現的字和第二個字相同按j，和第二個字不同按f，是否看到第一個字根本不重要。,3,Male,中文，英語,沒有問題。,5faefcc22be93b11829e84df,Firefox,Mac,1117,1728,5.41805,
7,condition1,2,普,通,j,2351,154,通,sem-sem,[],28,Yes,12,16,6,0,請問第二個字是否停留的時間太久？感覺無需知道第一個字是什麼，只要記住第二個字就可以。如果隨後出現的字和第二個字相同按j，和第二個字不同按f，是否看到第一個字根本不重要。,3,Male,中文，英語,沒有問題。,5faefcc22be93b11829e84df,Firefox,Mac,1117,1728,5.41805,
7,condition1,2,糖,鄰,j,2152,155,鄰,con,[],28,Yes,12,16,6,0,請問第二個字是否停留的時間太久？感覺無需知道第一個字是什麼，只要記住第二個字就可以。如果隨後出現的字和第二個字相同按j，和第二個字不同按f，是否看到第一個字根本不重要。,3,Male,中文，英語,沒有問題。,5faefcc22be93b11829e84df,Firefox,Mac,1117,1728,5.41805,
7,condition1,1,夫,夫,f,2265,156,妻,sem-sem,[],28,Yes,12,16,6,0,請問第二個字是否停留的時間太久？感覺無需知道第一個字是什麼，只要記住第二個字就可以。如果隨後出現的字和第二個字相同按j，和第二個字不同按f，是否看到第一個字根本不重要。,3,Male,中文，英語,沒有問題。,5faefcc22be93b11829e84df,Firefox,Mac,1117,1728,5.41805,
7,condition1,2,銀,蓋,j,2262,157,蓋,con,[],28,Yes,12,16,6,0,請問第二個字是否停留的時間太久？感覺無需知道第一個字是什麼，只要記住第二個字就可以。如果隨後出現的字和第二個字相同按j，和第二個字不同按f，是否看到第一個字根本不重要。,3,Male,中文，英語,沒有問題。,5faefcc22be93b11829e84df,Firefox,Mac,1117,1728,5.41805,
7,condition1,2,奴,隸,j,2268,158,隸,sem-sem,[],28,Yes,12,16,6,0,請問第二個字是否停留的時間太久？感覺無需知道第一個字是什麼，只要記住第二個字就可以。如果隨後出現的字和第二個字相同按j，和第二個字不同按f，是否看到第一個字根本不重要。,3,Male,中文，英語,沒有問題。,5faefcc22be93b11829e84df,Firefox,Mac,1117,1728,5.41805,
7,condition1,1,東,東,f,2498,159,西,sem-sem,[],28,Yes,12,16,6,0,請問第二個字是否停留的時間太久？感覺無需知道第一個字是什麼，只要記住第二個字就可以。如果隨後出現的字和第二個字相同按j，和第二個字不同按f，是否看到第一個字根本不重要。,3,Male,中文，英語,沒有問題。,5faefcc22be93b11829e84df,Firefox,Mac,1117,1728,5.41805,
7,condition1,1,紐,紐,f,2301,160,醜,phon-phon,[],28,Yes,12,16,6,0,請問第二個字是否停留的時間太久？感覺無需知道第一個字是什麼，只要記住第二個字就可以。如果隨後出現的字和第二個字相同按j，和第二個字不同按f，是否看到第一個字根本不重要。,3,Male,中文，英語,沒有問題。,5faefcc22be93b11829e84df,Firefox,Mac,1117,1728,5.41805,
7,condition1,2,憾,敢,j,2224,161,敢,phon-phon,[],28,Yes,12,16,6,0,請問第二個字是否停留的時間太久？感覺無需知道第一個字是什麼，只要記住第二個字就可以。如果隨後出現的字和第二個字相同按j，和第二個字不同按f，是否看到第一個字根本不重要。,3,Male,中文，英語,沒有問題。,5faefcc22be93b11829e84df,Firefox,Mac,1117,1728,5.41805,
7,condition1,1,盪,盪,f,2208,162,棍,con,[],28,Yes,12,16,6,0,請問第二個字是否停留的時間太久？感覺無需知道第一個字是什麼，只要記住第二個字就可以。如果隨後出現的字和第二個字相同按j，和第二個字不同按f，是否看到第一個字根本不重要。,3,Male,中文，英語,沒有問題。,5faefcc22be93b11829e84df,Firefox,Mac,1117,1728,5.41805,
7,condition1,2,漆,端,j,2303,163,端,con,[],28,Yes,12,16,6,0,請問第二個字是否停留的時間太久？感覺無需知道第一個字是什麼，只要記住第二個字就可以。如果隨後出現的字和第二個字相同按j，和第二個字不同按f，是否看到第一個字根本不重要。,3,Male,中文，英語,沒有問題。,5faefcc22be93b11829e84df,Firefox,Mac,1117,1728,5.41805,
7,condition1,1,拒,拒,f,2101,164,大,phon-sem,[],28,Yes,12,16,6,0,請問第二個字是否停留的時間太久？感覺無需知道第一個字是什麼，只要記住第二個字就可以。如果隨後出現的字和第二個字相同按j，和第二個字不同按f，是否看到第一個字根本不重要。,3,Male,中文，英語,沒有問題。,5faefcc22be93b11829e84df,Firefox,Mac,1117,1728,5.41805,
7,condition1,2,危,險,j,2119,165,險,sem-sem,[],28,Yes,12,16,6,0,請問第二個字是否停留的時間太久？感覺無需知道第一個字是什麼，只要記住第二個字就可以。如果隨後出現的字和第二個字相同按j，和第二個字不同按f，是否看到第一個字根本不重要。,3,Male,中文，英語,沒有問題。,5faefcc22be93b11829e84df,Firefox,Mac,1117,1728,5.41805,
7,condition1,1,寫,寫,f,2175,166,字,sem-sem,[],28,Yes,12,16,6,0,請問第二個字是否停留的時間太久？感覺無需知道第一個字是什麼，只要記住第二個字就可以。如果隨後出現的字和第二個字相同按j，和第二個字不同按f，是否看到第一個字根本不重要。,3,Male,中文，英語,沒有問題。,5faefcc22be93b11829e84df,Firefox,Mac,1117,1728,5.41805,
7,condition1,1,孝,孝,f,2431,167,順,sem-sem,[],28,Yes,12,16,6,0,請問第二個字是否停留的時間太久？感覺無需知道第一個字是什麼，只要記住第二個字就可以。如果隨後出現的字和第二個字相同按j，和第二個字不同按f，是否看到第一個字根本不重要。,3,Male,中文，英語,沒有問題。,5faefcc22be93b11829e84df,Firefox,Mac,1117,1728,5.41805,
7,condition1,1,樣,樣,f,2402,168,輕,con,[],28,Yes,12,16,6,0,請問第二個字是否停留的時間太久？感覺無需知道第一個字是什麼，只要記住第二個字就可以。如果隨後出現的字和第二個字相同按j，和第二個字不同按f，是否看到第一個字根本不重要。,3,Male,中文，英語,沒有問題。,5faefcc22be93b11829e84df,Firefox,Mac,1117,1728,5.41805,
7,condition1,2,針,線,j,2449,169,線,sem-sem,[],28,Yes,12,16,6,0,請問第二個字是否停留的時間太久？感覺無需知道第一個字是什麼，只要記住第二個字就可以。如果隨後出現的字和第二個字相同按j，和第二個字不同按f，是否看到第一個字根本不重要。,3,Male,中文，英語,沒有問題。,5faefcc22be93b11829e84df,Firefox,Mac,1117,1728,5.41805,
7,condition1,2,紛,析,j,2541,170,析,phon-sem,[],28,Yes,12,16,6,0,請問第二個字是否停留的時間太久？感覺無需知道第一個字是什麼，只要記住第二個字就可以。如果隨後出現的字和第二個字相同按j，和第二個字不同按f，是否看到第一個字根本不重要。,3,Male,中文，英語,沒有問題。,5faefcc22be93b11829e84df,Firefox,Mac,1117,1728,5.41805,
7,condition1,2,妹,喂,j,2235,171,喂,phon-phon,[],28,Yes,12,16,6,0,請問第二個字是否停留的時間太久？感覺無需知道第一個字是什麼，只要記住第二個字就可以。如果隨後出現的字和第二個字相同按j，和第二個字不同按f，是否看到第一個字根本不重要。,3,Male,中文，英語,沒有問題。,5faefcc22be93b11829e84df,Firefox,Mac,1117,1728,5.41805,
7,condition1,2,煉,葉,j,2148,172,葉,con,[],28,Yes,12,16,6,0,請問第二個字是否停留的時間太久？感覺無需知道第一個字是什麼，只要記住第二個字就可以。如果隨後出現的字和第二個字相同按j，和第二個字不同按f，是否看到第一個字根本不重要。,3,Male,中文，英語,沒有問題。,5faefcc22be93b11829e84df,Firefox,Mac,1117,1728,5.41805,
7,condition1,2,縮,素,j,2243,173,素,phon-phon,[],28,Yes,12,16,6,0,請問第二個字是否停留的時間太久？感覺無需知道第一個字是什麼，只要記住第二個字就可以。如果隨後出現的字和第二個字相同按j，和第二個字不同按f，是否看到第一個字根本不重要。,3,Male,中文，英語,沒有問題。,5faefcc22be93b11829e84df,Firefox,Mac,1117,1728,5.41805,
7,condition1,2,峽,述,j,2148,174,述,con,[],28,Yes,12,16,6,0,請問第二個字是否停留的時間太久？感覺無需知道第一個字是什麼，只要記住第二個字就可以。如果隨後出現的字和第二個字相同按j，和第二個字不同按f，是否看到第一個字根本不重要。,3,Male,中文，英語,沒有問題。,5faefcc22be93b11829e84df,Firefox,Mac,1117,1728,5.41805,
7,condition1,2,很,車,j,2128,175,車,con,[],28,Yes,12,16,6,0,請問第二個字是否停留的時間太久？感覺無需知道第一個字是什麼，只要記住第二個字就可以。如果隨後出現的字和第二個字相同按j，和第二個字不同按f，是否看到第一個字根本不重要。,3,Male,中文，英語,沒有問題。,5faefcc22be93b11829e84df,Firefox,Mac,1117,1728,5.41805,
7,condition1,2,厭,惡,j,2330,176,惡,sem-sem,[],28,Yes,12,16,6,0,請問第二個字是否停留的時間太久？感覺無需知道第一個字是什麼，只要記住第二個字就可以。如果隨後出現的字和第二個字相同按j，和第二個字不同按f，是否看到第一個字根本不重要。,3,Male,中文，英語,沒有問題。,5faefcc22be93b11829e84df,Firefox,Mac,1117,1728,5.41805,
7,condition1,1,轎,轎,f,2204,177,瞧,phon-phon,[],28,Yes,12,16,6,0,請問第二個字是否停留的時間太久？感覺無需知道第一個字是什麼，只要記住第二個字就可以。如果隨後出現的字和第二個字相同按j，和第二個字不同按f，是否看到第一個字根本不重要。,3,Male,中文，英語,沒有問題。,5faefcc22be93b11829e84df,Firefox,Mac,1117,1728,5.41805,
7,condition1,2,跟,董,j,2123,178,董,con,[],28,Yes,12,16,6,0,請問第二個字是否停留的時間太久？感覺無需知道第一個字是什麼，只要記住第二個字就可以。如果隨後出現的字和第二個字相同按j，和第二個字不同按f，是否看到第一個字根本不重要。,3,Male,中文，英語,沒有問題。,5faefcc22be93b11829e84df,Firefox,Mac,1117,1728,5.41805,
7,condition1,1,帳,帳,f,2266,179,煮,con,[],28,Yes,12,16,6,0,請問第二個字是否停留的時間太久？感覺無需知道第一個字是什麼，只要記住第二個字就可以。如果隨後出現的字和第二個字相同按j，和第二個字不同按f，是否看到第一個字根本不重要。,3,Male,中文，英語,沒有問題。,5faefcc22be93b11829e84df,Firefox,Mac,1117,1728,5.41805,
7,condition1,1,首,首,f,2681,180,俊,con,[],28,Yes,12,16,6,0,請問第二個字是否停留的時間太久？感覺無需知道第一個字是什麼，只要記住第二個字就可以。如果隨後出現的字和第二個字相同按j，和第二個字不同按f，是否看到第一個字根本不重要。,3,Male,中文，英語,沒有問題。,5faefcc22be93b11829e84df,Firefox,Mac,1117,1728,5.41805,
7,condition1,1,据,据,f,4066,181,住,phon-sem,[],28,Yes,12,16,6,0,請問第二個字是否停留的時間太久？感覺無需知道第一個字是什麼，只要記住第二個字就可以。如果隨後出現的字和第二個字相同按j，和第二個字不同按f，是否看到第一個字根本不重要。,3,Male,中文，英語,沒有問題。,5faefcc22be93b11829e84df,Firefox,Mac,1117,1728,5.41805,
7,condition1,2,垃,圾,j,2177,182,圾,sem-sem,[],28,Yes,12,16,6,0,請問第二個字是否停留的時間太久？感覺無需知道第一個字是什麼，只要記住第二個字就可以。如果隨後出現的字和第二個字相同按j，和第二個字不同按f，是否看到第一個字根本不重要。,3,Male,中文，英語,沒有問題。,5faefcc22be93b11829e84df,Firefox,Mac,1117,1728,5.41805,
7,condition1,2,仗,夫,j,2210,183,夫,phon-sem,[],28,Yes,12,16,6,0,請問第二個字是否停留的時間太久？感覺無需知道第一個字是什麼，只要記住第二個字就可以。如果隨後出現的字和第二個字相同按j，和第二個字不同按f，是否看到第一個字根本不重要。,3,Male,中文，英語,沒有問題。,5faefcc22be93b11829e84df,Firefox,Mac,1117,1728,5.41805,
7,condition1,2,脆,微,j,2257,184,微,phon-phon,[],28,Yes,12,16,6,0,請問第二個字是否停留的時間太久？感覺無需知道第一個字是什麼，只要記住第二個字就可以。如果隨後出現的字和第二個字相同按j，和第二個字不同按f，是否看到第一個字根本不重要。,3,Male,中文，英語,沒有問題。,5faefcc22be93b11829e84df,Firefox,Mac,1117,1728,5.41805,
7,condition1,2,轄,嗨,j,2127,185,嗨,phon-phon,[],28,Yes,12,16,6,0,請問第二個字是否停留的時間太久？感覺無需知道第一個字是什麼，只要記住第二個字就可以。如果隨後出現的字和第二個字相同按j，和第二個字不同按f，是否看到第一個字根本不重要。,3,Male,中文，英語,沒有問題。,5faefcc22be93b11829e84df,Firefox,Mac,1117,1728,5.41805,
7,condition1,2,戚,唐,j,2328,186,唐,con,[],28,Yes,12,16,6,0,請問第二個字是否停留的時間太久？感覺無需知道第一個字是什麼，只要記住第二個字就可以。如果隨後出現的字和第二個字相同按j，和第二個字不同按f，是否看到第一個字根本不重要。,3,Male,中文，英語,沒有問題。,5faefcc22be93b11829e84df,Firefox,Mac,1117,1728,5.41805,
7,condition1,2,真,實,j,2247,187,實,sem-sem,[],28,Yes,12,16,6,0,請問第二個字是否停留的時間太久？感覺無需知道第一個字是什麼，只要記住第二個字就可以。如果隨後出現的字和第二個字相同按j，和第二個字不同按f，是否看到第一個字根本不重要。,3,Male,中文，英語,沒有問題。,5faefcc22be93b11829e84df,Firefox,Mac,1117,1728,5.41805,
7,condition1,2,跑,剝,j,2087,188,剝,phon-phon,[],28,Yes,12,16,6,0,請問第二個字是否停留的時間太久？感覺無需知道第一個字是什麼，只要記住第二個字就可以。如果隨後出現的字和第二個字相同按j，和第二個字不同按f，是否看到第一個字根本不重要。,3,Male,中文，英語,沒有問題。,5faefcc22be93b11829e84df,Firefox,Mac,1117,1728,5.41805,
7,condition1,2,泥,姑,j,2234,189,姑,phon-sem,[],28,Yes,12,16,6,0,請問第二個字是否停留的時間太久？感覺無需知道第一個字是什麼，只要記住第二個字就可以。如果隨後出現的字和第二個字相同按j，和第二個字不同按f，是否看到第一個字根本不重要。,3,Male,中文，英語,沒有問題。,5faefcc22be93b11829e84df,Firefox,Mac,1117,1728,5.41805,
7,condition1,1,謂,謂,f,2426,190,腸,phon-sem,[],28,Yes,12,16,6,0,請問第二個字是否停留的時間太久？感覺無需知道第一個字是什麼，只要記住第二個字就可以。如果隨後出現的字和第二個字相同按j，和第二個字不同按f，是否看到第一個字根本不重要。,3,Male,中文，英語,沒有問題。,5faefcc22be93b11829e84df,Firefox,Mac,1117,1728,5.41805,
11,condition1,2,司,進,j,2520,8,進,con,[],39,No,37,39,11,16,沒有,2,Male,"粵語, 英文",沒有,67a63dfc2e75257065647829,Chrome,Windows,1080,1920,3.2026666666666666,
11,condition1,1,遵,遵,f,2504,9,重,phon-sem,[],39,No,37,39,11,16,沒有,2,Male,"粵語, 英文",沒有,67a63dfc2e75257065647829,Chrome,Windows,1080,1920,3.2026666666666666,
11,condition1,1,氾,氾,f,2328,10,濫,sem-sem,[],39,No,37,39,11,16,沒有,2,Male,"粵語, 英文",沒有,67a63dfc2e75257065647829,Chrome,Windows,1080,1920,3.2026666666666666,
11,condition1,1,棋,棋,f,2386,11,實,phon-sem,[],39,No,37,39,11,16,沒有,2,Male,"粵語, 英文",沒有,67a63dfc2e75257065647829,Chrome,Windows,1080,1920,3.2026666666666666,
11,condition1,2,脆,微,j,2188,12,微,phon-phon,[],39,No,37,39,11,16,沒有,2,Male,"粵語, 英文",沒有,67a63dfc2e75257065647829,Chrome,Windows,1080,1920,3.2026666666666666,
11,condition1,2,附,出,j,2245,13,出,phon-sem,[],39,No,37,39,11,16,沒有,2,Male,"粵語, 英文",沒有,67a63dfc2e75257065647829,Chrome,Windows,1080,1920,3.2026666666666666,
11,condition1,2,黎,彬,j,2309,14,彬,con,[],39,No,37,39,11,16,沒有,2,Male,"粵語, 英文",沒有,67a63dfc2e75257065647829,Chrome,Windows,1080,1920,3.2026666666666666,
11,condition1,1,拒,拒,f,2142,15,大,phon-sem,[],39,No,37,39,11,16,沒有,2,Male,"粵語, 英文",沒有,67a63dfc2e75257065647829,Chrome,Windows,1080,1920,3.2026666666666666,
11,condition1,1,雖,雖,f,2317,16,營,con,[],39,No,37,39,11,16,沒有,2,Male,"粵語, 英文",沒有,67a63dfc2e75257065647829,Chrome,Windows,1080,1920,3.2026666666666666,
11,condition1,2,燈,山,j,2555,17,山,phon-sem,[],39,No,37,39,11,16,沒有,2,Male,"粵語, 英文",沒有,67a63dfc2e75257065647829,Chrome,Windows,1080,1920,3.2026666666666666,
11,condition1,2,摺,席,j,2284,18,席,phon-phon,[],39,No,37,39,11,16,沒有,2,Male,"粵語, 英文",沒有,67a63dfc2e75257065647829,Chrome,Windows,1080,1920,3.2026666666666666,
11,condition1,2,擁,賞,j,2219,19,賞,con,[],39,No,37,39,11,16,沒有,2,Male,"粵語, 英文",沒有,67a63dfc2e75257065647829,Chrome,Windows,1080,1920,3.2026666666666666,
11,condition1,1,余,余,f,2552,20,別,con,[],39,No,37,39,11,16,沒有,2,Male,"粵語, 英文",沒有,67a63dfc2e75257065647829,Chrome,Windows,1080,1920,3.2026666666666666,
11,condition1,2,臭,堂,j,2508,21,堂,con,[],39,No,37,39,11,16,沒有,2,Male,"粵語, 英文",沒有,67a63dfc2e75257065647829,Chrome,Windows,1080,1920,3.2026666666666666,
11,condition1,1,松,松,f,2183,22,工,phon-phon,[],39,No,37,39,11,16,沒有,2,Male,"粵語, 英文",沒有,67a63dfc2e75257065647829,Chrome,Windows,1080,1920,3.2026666666666666,
11,condition1,2,糖,鄰,j,2287,23,鄰,con,[],39,No,37,39,11,16,沒有,2,Male,"粵語, 英文",沒有,67a63dfc2e75257065647829,Chrome,Windows,1080,1920,3.2026666666666666,
11,condition1,1,跑,跑,f,2305,24,剝,phon-phon,[],39,No,37,39,11,16,沒有,2,Male,"粵語, 英文",沒有,67a63dfc2e75257065647829,Chrome,Windows,1080,1920,3.2026666666666666,
11,condition1,1,羨,羨,f,2319,25,慕,sem-sem,[],39,No,37,39,11,16,沒有,2,Male,"粵語, 英文",沒有,67a63dfc2e75257065647829,Chrome,Windows,1080,1920,3.2026666666666666,
11,condition1,1,喧,喧,f,2352,26,佈,phon-sem,[],39,No,37,39,11,16,沒有,2,Male,"粵語, 英文",沒有,67a63dfc2e75257065647829,Chrome,Windows,1080,1920,3.2026666666666666,
11,condition1,1,滑,滑,f,2343,27,谷,phon-phon,[],39,No,37,39,11,16,沒有,2,Male,"粵語, 英文",沒有,67a63dfc2e75257065647829,Chrome,Windows,1080,1920,3.2026666666666666,
11,condition1,2,虐,待,j,2218,28,待,sem-sem,[],39,No,37,39,11,16,沒有,2,Male,"粵語, 英文",沒有,67a63dfc2e75257065647829,Chrome,Windows,1080,1920,3.2026666666666666,
11,condition1,2,据,住,f,2158,29,住,phon-sem,[],39,No,37,39,11,16,沒有,2,Male,"粵語, 英文",沒有,67a63dfc2e75257065647829,Chrome,Windows,1080,1920,3.2026666666666666,
11,condition1,2,額,賽,j,2196,30,賽,con,[],39,No,37,39,11,16,沒有,2,Male,"粵語, 英文",沒有,67a63dfc2e75257065647829,Chrome,Windows,1080,1920,3.2026666666666666,
11,condition1,1,謂,謂,f,2340,31,腸,phon-sem,[],39,No,37,39,11,16,沒有,2,Male,"粵語, 英文",沒有,67a63dfc2e75257065647829,Chrome,Windows,1080,1920,3.2026666666666666,
11,condition1,2,移,勝,j,2248,32,勝,con,[],39,No,37,39,11,16,沒有,2,Male,"粵語, 英文",沒有,67a63dfc2e75257065647829,Chrome,Windows,1080,1920,3.2026666666666666,
11,condition1,1,仇,仇,f,2304,33,恨,sem-sem,[],39,No,37,39,11,16,沒有,2,Male,"粵語, 英文",沒有,67a63dfc2e75257065647829,Chrome,Windows,1080,1920,3.2026666666666666,
11,condition1,1,輾,輾,f,2350,34,斬,phon-phon,[],39,No,37,39,11,16,沒有,2,Male,"粵語, 英文",沒有,67a63dfc2e75257065647829,Chrome,Windows,1080,1920,3.2026666666666666,
11,condition1,1,諒,諒,f,2420,35,經,phon-phon,[],39,No,37,39,11,16,沒有,2,Male,"粵語, 英文",沒有,67a63dfc2e75257065647829,Chrome,Windows,1080,1920,3.2026666666666666,
11,condition1,2,晚,勉,j,2280,36,勉,phon-phon,[],39,No,37,39,11,16,沒有,2,Male,"粵語, 英文",沒有,67a63dfc2e75257065647829,Chrome,Windows,1080,1920,3.2026666666666666,
11,condition1,1,讚,讚,f,2341,37,成,phon-sem,[],39,No,37,39,11,16,沒有,2,Male,"粵語, 英文",沒有,67a63dfc2e75257065647829,Chrome,Windows,1080,1920,3.2026666666666666,
11,condition1,1,真,真,f,2315,38,實,sem-sem,[],39,No,37,39,11,16,沒有,2,Male,"粵語, 英文",沒有,67a63dfc2e75257065647829,Chrome,Windows,1080,1920,3.2026666666666666,
11,condition1,1,源,源,f,2530,39,因,phon-sem,[],39,No,37,39,11,16,沒有,2,Male,"粵語, 英文",沒有,67a63dfc2e75257065647829,Chrome,Windows,1080,1920,3.2026666666666666,
11,condition1,1,戚,戚,f,2319,40,唐,con,[],39,No,37,39,11,16,沒有,2,Male,"粵語, 英文",沒有,67a63dfc2e75257065647829,Chrome,Windows,1080,1920,3.2026666666666666,
11,condition1,2,軸,階,j,2301,41,階,con,[],39,No,37,39,11,16,沒有,2,Male,"粵語, 英文",沒有,67a63dfc2e75257065647829,Chrome,Windows,1080,1920,3.2026666666666666,
11,condition1,1,楣,楣,f,2359,42,毛,phon-sem,[],39,No,37,39,11,16,沒有,2,Male,"粵語, 英文",沒有,67a63dfc2e75257065647829,Chrome,Windows,1080,1920,3.2026666666666666,
11,condition1,2,堪,慎,j,2278,43,慎,phon-phon,[],39,No,37,39,11,16,沒有,2,Male,"粵語, 英文",沒有,67a63dfc2e75257065647829,Chrome,Windows,1080,1920,3.2026666666666666,
11,condition1,2,憾,敢,f,2384,44,敢,phon-phon,[],39,No,37,39,11,16,沒有,2,Male,"粵語, 英文",沒有,67a63dfc2e75257065647829,Chrome,Windows,1080,1920,3.2026666666666666,
11,condition1,2,森,林,f,2216,45,林,sem-sem,[],39,No,37,39,11,16,沒有,2,Male,"粵語, 英文",沒有,67a63dfc2e75257065647829,Chrome,Windows,1080,1920,3.2026666666666666,
11,condition1,1,懈,懈,f,3069,46,姐,phon-phon,[],39,No,37,39,11,16,沒有,2,Male,"粵語, 英文",沒有,67a63dfc2e75257065647829,Chrome,Windows,1080,1920,3.2026666666666666,
11,condition1,2,締,國,j,2197,47,國,phon-sem,[],39,No,37,39,11,16,沒有,2,Male,"粵語, 英文",沒有,67a63dfc2e75257065647829,Chrome,Windows,1080,1920,3.2026666666666666,
11,condition1,1,鏗,鏗,f,2294,48,間,phon-phon,[],39,No,37,39,11,16,沒有,2,Male,"粵語, 英文",沒有,67a63dfc2e75257065647829,Chrome,Windows,1080,1920,3.2026666666666666,
11,condition1,1,煉,煉,f,2426,49,葉,con,[],39,No,37,39,11,16,沒有,2,Male,"粵語, 英文",沒有,67a63dfc2e75257065647829,Chrome,Windows,1080,1920,3.2026666666666666,
11,condition1,2,遲,夕,j,2186,50,夕,phon-phon,[],39,No,37,39,11,16,沒有,2,Male,"粵語, 英文",沒有,67a63dfc2e75257065647829,Chrome,Windows,1080,1920,3.2026666666666666,
11,condition1,2,革,命,j,2293,52,命,sem-sem,[],39,No,37,39,11,16,沒有,2,Male,"粵語, 英文",沒有,67a63dfc2e75257065647829,Chrome,Windows,1080,1920,3.2026666666666666,
11,condition1,1,財,財,f,2376,53,能,phon-sem,[],39,No,37,39,11,16,沒有,2,Male,"粵語, 英文",沒有,67a63dfc2e75257065647829,Chrome,Windows,1080,1920,3.2026666666666666,
11,condition1,1,冰,冰,f,3015,54,冷,sem-sem,[],39,No,37,39,11,16,沒有,2,Male,"粵語, 英文",沒有,67a63dfc2e75257065647829,Chrome,Windows,1080,1920,3.2026666666666666,
11,condition1,2,惶,帝,j,2273,55,帝,phon-sem,[],39,No,37,39,11,16,沒有,2,Male,"粵語, 英文",沒有,67a63dfc2e75257065647829,Chrome,Windows,1080,1920,3.2026666666666666,
11,condition1,2,綜,教,f,2247,56,教,phon-sem,[],39,No,37,39,11,16,沒有,2,Male,"粵語, 英文",沒有,67a63dfc2e75257065647829,Chrome,Windows,1080,1920,3.2026666666666666,
11,condition1,2,很,車,j,2108,57,車,con,[],39,No,37,39,11,16,沒有,2,Male,"粵語, 英文",沒有,67a63dfc2e75257065647829,Chrome,Windows,1080,1920,3.2026666666666666,
11,condition1,2,程,現,j,2253,58,現,phon-sem,[],39,No,37,39,11,16,沒有,2,Male,"粵語, 英文",沒有,67a63dfc2e75257065647829,Chrome,Windows,1080,1920,3.2026666666666666,
11,condition1,1,檔,檔,f,2247,59,諾,con,[],39,No,37,39,11,16,沒有,2,Male,"粵語, 英文",沒有,67a63dfc2e75257065647829,Chrome,Windows,1080,1920,3.2026666666666666,
11,condition1,2,妹,喂,j,2196,60,喂,phon-phon,[],39,No,37,39,11,16,沒有,2,Male,"粵語, 英文",沒有,67a63dfc2e75257065647829,Chrome,Windows,1080,1920,3.2026666666666666,
11,condition1,2,倖,福,j,2248,61,福,phon-sem,[],39,No,37,39,11,16,沒有,2,Male,"粵語, 英文",沒有,67a63dfc2e75257065647829,Chrome,Windows,1080,1920,3.2026666666666666,
11,condition1,1,誌,誌,f,2291,62,願,phon-sem,[],39,No,37,39,11,16,沒有,2,Male,"粵語, 英文",沒有,67a63dfc2e75257065647829,Chrome,Windows,1080,1920,3.2026666666666666,
11,condition1,1,紐,紐,f,2370,63,醜,phon-phon,[],39,No,37,39,11,16,沒有,2,Male,"粵語, 英文",沒有,67a63dfc2e75257065647829,Chrome,Windows,1080,1920,3.2026666666666666,
11,condition1,2,喜,歡,j,2135,64,歡,sem-sem,[],39,No,37,39,11,16,沒有,2,Male,"粵語, 英文",沒有,67a63dfc2e75257065647829,Chrome,Windows,1080,1920,3.2026666666666666,
11,condition1,2,暗,因,j,2161,65,因,phon-phon,[],39,No,37,39,11,16,沒有,2,Male,"粵語, 英文",沒有,67a63dfc2e75257065647829,Chrome,Windows,1080,1920,3.2026666666666666,
11,condition1,2,殖,游,j,2322,66,游,con,[],39,No,37,39,11,16,沒有,2,Male,"粵語, 英文",沒有,67a63dfc2e75257065647829,Chrome,Windows,1080,1920,3.2026666666666666,
11,condition1,1,繪,繪,f,2360,67,港,con,[],39,No,37,39,11,16,沒有,2,Male,"粵語, 英文",沒有,67a63dfc2e75257065647829,Chrome,Windows,1080,1920,3.2026666666666666,
11,condition1,2,藥,邀,j,2251,68,邀,con,[],39,No,37,39,11,16,沒有,2,Male,"粵語, 英文",沒有,67a63dfc2e75257065647829,Chrome,Windows,1080,1920,3.2026666666666666,
11,condition1,2,畢,業,j,2314,69,業,sem-sem,[],39,No,37,39,11,16,沒有,2,Male,"粵語, 英文",沒有,67a63dfc2e75257065647829,Chrome,Windows,1080,1920,3.2026666666666666,
11,condition1,1,危,危,f,2636,70,險,sem-sem,[],39,No,37,39,11,16,沒有,2,Male,"粵語, 英文",沒有,67a63dfc2e75257065647829,Chrome,Windows,1080,1920,3.2026666666666666,
11,condition1,1,東,東,f,2386,71,西,sem-sem,[],39,No,37,39,11,16,沒有,2,Male,"粵語, 英文",沒有,67a63dfc2e75257065647829,Chrome,Windows,1080,1920,3.2026666666666666,
11,condition1,2,觸,屬,j,2385,72,屬,phon-phon,[],39,No,37,39,11,16,沒有,2,Male,"粵語, 英文",沒有,67a63dfc2e75257065647829,Chrome,Windows,1080,1920,3.2026666666666666,
11,condition1,2,秩,肯,j,2183,73,肯,con,[],39,No,37,39,11,16,沒有,2,Male,"粵語, 英文",沒有,67a63dfc2e75257065647829,Chrome,Windows,1080,1920,3.2026666666666666,
11,condition1,2,棚,友,j,2212,74,友,phon-sem,[],39,No,37,39,11,16,沒有,2,Male,"粵語, 英文",沒有,67a63dfc2e75257065647829,Chrome,Windows,1080,1920,3.2026666666666666,
11,condition1,1,掘,掘,f,2246,75,區,phon-phon,[],39,No,37,39,11,16,沒有,2,Male,"粵語, 英文",沒有,67a63dfc2e75257065647829,Chrome,Windows,1080,1920,3.2026666666666666,
11,condition1,1,村,村,f,3152,76,即,con,[],39,No,37,39,11,16,沒有,2,Male,"粵語, 英文",沒有,67a63dfc2e75257065647829,Chrome,Windows,1080,1920,3.2026666666666666,
11,condition1,1,帳,帳,f,2510,77,煮,con,[],39,No,37,39,11,16,沒有,2,Male,"粵語, 英文",沒有,67a63dfc2e75257065647829,Chrome,Windows,1080,1920,3.2026666666666666,
11,condition1,1,縮,縮,f,2290,78,素,phon-phon,[],39,No,37,39,11,16,沒有,2,Male,"粵語, 英文",沒有,67a63dfc2e75257065647829,Chrome,Windows,1080,1920,3.2026666666666666,
11,condition1,2,騙,貶,j,2151,79,貶,phon-phon,[],39,No,37,39,11,16,沒有,2,Male,"粵語, 英文",沒有,67a63dfc2e75257065647829,Chrome,Windows,1080,1920,3.2026666666666666,
11,condition1,2,簡,單,j,2144,80,單,sem-sem,[],39,No,37,39,11,16,沒有,2,Male,"粵語, 英文",沒有,67a63dfc2e75257065647829,Chrome,Windows,1080,1920,3.2026666666666666,
11,condition1,2,渡,量,j,2292,81,量,phon-sem,[],39,No,37,39,11,16,沒有,2,Male,"粵語, 英文",沒有,67a63dfc2e75257065647829,Chrome,Windows,1080,1920,3.2026666666666666,
11,condition1,2,夫,妻,j,2654,82,妻,sem-sem,[],39,No,37,39,11,16,沒有,2,Male,"粵語, 英文",沒有,67a63dfc2e75257065647829,Chrome,Windows,1080,1920,3.2026666666666666,
11,condition1,1,螺,螺,f,2383,83,類,phon-phon,[],39,No,37,39,11,16,沒有,2,Male,"粵語, 英文",沒有,67a63dfc2e75257065647829,Chrome,Windows,1080,1920,3.2026666666666666,
11,condition1,1,壯,壯,f,2495,84,另,con,[],39,No,37,39,11,16,沒有,2,Male,"粵語, 英文",沒有,67a63dfc2e75257065647829,Chrome,Windows,1080,1920,3.2026666666666666,
11,condition1,2,囚,犯,j,2516,85,犯,sem-sem,[],39,No,37,39,11,16,沒有,2,Male,"粵語, 英文",沒有,67a63dfc2e75257065647829,Chrome,Windows,1080,1920,3.2026666666666666,
11,condition1,2,餵,懼,j,2169,86,懼,phon-sem,[],39,No,37,39,11,16,沒有,2,Male,"粵語, 英文",沒有,67a63dfc2e75257065647829,Chrome,Windows,1080,1920,3.2026666666666666,
11,condition1,2,孝,順,j,2175,87,順,sem-sem,[],39,No,37,39,11,16,沒有,2,Male,"粵語, 英文",沒有,67a63dfc2e75257065647829,Chrome,Windows,1080,1920,3.2026666666666666,
11,condition1,1,那,那,f,3201,88,飛,con,[],39,No,37,39,11,16,沒有,2,Male,"粵語, 英文",沒有,67a63dfc2e75257065647829,Chrome,Windows,1080,1920,3.2026666666666666,
11,condition1,1,批,批,f,2491,89,筆,phon-phon,[],39,No,37,39,11,16,沒有,2,Male,"粵語, 英文",沒有,67a63dfc2e75257065647829,Chrome,Windows,1080,1920,3.2026666666666666,
11,condition1,1,壢,壢,f,2271,90,史,phon-sem,[],39,No,37,39,11,16,沒有,2,Male,"粵語, 英文",沒有,67a63dfc2e75257065647829,Chrome,Windows,1080,1920,3.2026666666666666,
11,condition1,1,極,極,f,2347,91,損,con,[],39,No,37,39,11,16,沒有,2,Male,"粵語, 英文",沒有,67a63dfc2e75257065647829,Chrome,Windows,1080,1920,3.2026666666666666,
11,condition1,1,婚,婚,f,2261,92,迷,phon-sem,[],39,No,37,39,11,16,沒有,2,Male,"粵語, 英文",沒有,67a63dfc2e75257065647829,Chrome,Windows,1080,1920,3.2026666666666666,
11,condition1,1,胸,胸,f,2288,93,奴,phon-sem,[],39,No,37,39,11,16,沒有,2,Male,"粵語, 英文",沒有,67a63dfc2e75257065647829,Chrome,Windows,1080,1920,3.2026666666666666,
11,condition1,2,槌,錐,j,2532,94,錐,phon-phon,[],39,No,37,39,11,16,沒有,2,Male,"粵語, 英文",沒有,67a63dfc2e75257065647829,Chrome,Windows,1080,1920,3.2026666666666666,
11,condition1,1,肥,肥,f,2324,95,胖,sem-sem,[],39,No,37,39,11,16,沒有,2,Male,"粵語, 英文",沒有,67a63dfc2e75257065647829,Chrome,Windows,1080,1920,3.2026666666666666,
11,condition1,1,溶,溶,f,2424,96,易,phon-sem,[],39,No,37,39,11,16,沒有,2,Male,"粵語, 英文",沒有,67a63dfc2e75257065647829,Chrome,Windows,1080,1920,3.2026666666666666,
11,condition1,1,仗,仗,f,2444,97,夫,phon-sem,[],39,No,37,39,11,16,沒有,2,Male,"粵語, 英文",沒有,67a63dfc2e75257065647829,Chrome,Windows,1080,1920,3.2026666666666666,
11,condition1,1,饑,饑,f,2363,98,餓,sem-sem,[],39,No,37,39,11,16,沒有,2,Male,"粵語, 英文",沒有,67a63dfc2e75257065647829,Chrome,Windows,1080,1920,3.2026666666666666,
11,condition1,2,遂,喝,f,2245,99,喝,con,[],39,No,37,39,11,16,沒有,2,Male,"粵語, 英文",沒有,67a63dfc2e75257065647829,Chrome,Windows,1080,1920,3.2026666666666666,
11,condition1,2,漆,端,j,2135,100,端,con,[],39,No,37,39,11,16,沒有,2,Male,"粵語, 英文",沒有,67a63dfc2e75257065647829,Chrome,Windows,1080,1920,3.2026666666666666,
11,condition1,1,剪,剪,f,2276,102,刀,sem-sem,[],39,No,37,39,11,16,沒有,2,Male,"粵語, 英文",沒有,67a63dfc2e75257065647829,Chrome,Windows,1080,1920,3.2026666666666666,
11,condition1,2,蔬,菜,j,2151,103,菜,sem-sem,[],39,No,37,39,11,16,沒有,2,Male,"粵語, 英文",沒有,67a63dfc2e75257065647829,Chrome,Windows,1080,1920,3.2026666666666666,
11,condition1,1,耕,耕,f,2521,104,警,phon-phon,[],39,No,37,39,11,16,沒有,2,Male,"粵語, 英文",沒有,67a63dfc2e75257065647829,Chrome,Windows,1080,1920,3.2026666666666666,
11,condition1,2,謝,社,j,2101,105,社,phon-phon,[],39,No,37,39,11,16,沒有,2,Male,"粵語, 英文",沒有,67a63dfc2e75257065647829,Chrome,Windows,1080,1920,3.2026666666666666,
11,condition1,1,銀,銀,f,2266,106,蓋,con,[],39,No,37,39,11,16,沒有,2,Male,"粵語, 英文",沒有,67a63dfc2e75257065647829,Chrome,Windows,1080,1920,3.2026666666666666,
11,condition1,2,濃,田,j,2135,107,田,phon-sem,[],39,No,37,39,11,16,沒有,2,Male,"粵語, 英文",沒有,67a63dfc2e75257065647829,Chrome,Windows,1080,1920,3.2026666666666666,
11,condition1,2,稀,望,j,2111,108,望,phon-sem,[],39,No,37,39,11,16,沒有,2,Male,"粵語, 英文",沒有,67a63dfc2e75257065647829,Chrome,Windows,1080,1920,3.2026666666666666,
11,condition1,1,泥,泥,f,2349,109,姑,phon-sem,[],39,No,37,39,11,16,沒有,2,Male,"粵語, 英文",沒有,67a63dfc2e75257065647829,Chrome,Windows,1080,1920,3.2026666666666666,
11,condition1,2,梓,某,j,2162,110,某,con,[],39,No,37,39,11,16,沒有,2,Male,"粵語, 英文",沒有,67a63dfc2e75257065647829,Chrome,Windows,1080,1920,3.2026666666666666,
11,condition1,2,邦,鎖,j,2177,111,鎖,con,[],39,No,37,39,11,16,沒有,2,Male,"粵語, 英文",沒有,67a63dfc2e75257065647829,Chrome,Windows,1080,1920,3.2026666666666666,
11,condition1,1,奴,奴,f,2305,112,隸,sem-sem,[],39,No,37,39,11,16,沒有,2,Male,"粵語, 英文",沒有,67a63dfc2e75257065647829,Chrome,Windows,1080,1920,3.2026666666666666,
11,condition1,2,手,腳,j,2208,113,腳,sem-sem,[],39,No,37,39,11,16,沒有,2,Male,"粵語, 英文",沒有,67a63dfc2e75257065647829,Chrome,Windows,1080,1920,3.2026666666666666,
11,condition1,2,首,俊,j,2339,114,俊,con,[],39,No,37,39,11,16,沒有,2,Male,"粵語, 英文",沒有,67a63dfc2e75257065647829,Chrome,Windows,1080,1920,3.2026666666666666,
11,condition1,1,漢,漢,f,2268,115,隔,con,[],39,No,37,39,11,16,沒有,2,Male,"粵語, 英文",沒有,67a63dfc2e75257065647829,Chrome,Windows,1080,1920,3.2026666666666666,
11,condition1,1,攤,攤,f,2236,116,南,phon-phon,[],39,No,37,39,11,16,沒有,2,Male,"粵語, 英文",沒有,67a63dfc2e75257065647829,Chrome,Windows,1080,1920,3.2026666666666666,
11,condition1,1,提,提,f,2707,117,市,phon-phon,[],39,No,37,39,11,16,沒有,2,Male,"粵語, 英文",沒有,67a63dfc2e75257065647829,Chrome,Windows,1080,1920,3.2026666666666666,
11,condition1,1,寫,寫,f,2365,118,字,sem-sem,[],39,No,37,39,11,16,沒有,2,Male,"粵語, 英文",沒有,67a63dfc2e75257065647829,Chrome,Windows,1080,1920,3.2026666666666666,
11,condition1,1,楓,楓,f,2297,119,雨,phon-sem,[],39,No,37,39,11,16,沒有,2,Male,"粵語, 英文",沒有,67a63dfc2e75257065647829,Chrome,Windows,1080,1920,3.2026666666666666,
11,condition1,1,擒,擒,f,2953,120,獸,phon-sem,[],39,No,37,39,11,16,沒有,2,Male,"粵語, 英文",沒有,67a63dfc2e75257065647829,Chrome,Windows,1080,1920,3.2026666666666666,
11,condition1,1,讀,讀,f,2371,121,邁,phon-phon,[],39,No,37,39,11,16,沒有,2,Male,"粵語, 英文",沒有,67a63dfc2e75257065647829,Chrome,Windows,1080,1920,3.2026666666666666,
11,condition1,1,宜,宜,f,2465,122,其,con,[],39,No,37,39,11,16,沒有,2,Male,"粵語, 英文",沒有,67a63dfc2e75257065647829,Chrome,Windows,1080,1920,3.2026666666666666,
11,condition1,1,準,準,f,2515,123,腦,con,[],39,No,37,39,11,16,沒有,2,Male,"粵語, 英文",沒有,67a63dfc2e75257065647829,Chrome,Windows,1080,1920,3.2026666666666666,
11,condition1,2,轄,嗨,j,2130,124,嗨,phon-phon,[],39,No,37,39,11,16,沒有,2,Male,"粵語, 英文",沒有,67a63dfc2e75257065647829,Chrome,Windows,1080,1920,3.2026666666666666,
11,condition1,2,眠,務,j,2133,125,務,con,[],39,No,37,39,11,16,沒有,2,Male,"粵語, 英文",沒有,67a63dfc2e75257065647829,Chrome,Windows,1080,1920,3.2026666666666666,
11,condition1,2,盪,棍,j,2165,126,棍,con,[],39,No,37,39,11,16,沒有,2,Male,"粵語, 英文",沒有,67a63dfc2e75257065647829,Chrome,Windows,1080,1920,3.2026666666666666,
11,condition1,2,垃,圾,j,2408,127,圾,sem-sem,[],39,No,37,39,11,16,沒有,2,Male,"粵語, 英文",沒有,67a63dfc2e75257065647829,Chrome,Windows,1080,1920,3.2026666666666666,
11,condition1,1,詞,詞,f,2479,128,絲,phon-phon,[],39,No,37,39,11,16,沒有,2,Male,"粵語, 英文",沒有,67a63dfc2e75257065647829,Chrome,Windows,1080,1920,3.2026666666666666,
11,condition1,2,拯,救,j,2156,129,救,sem-sem,[],39,No,37,39,11,16,沒有,2,Male,"粵語, 英文",沒有,67a63dfc2e75257065647829,Chrome,Windows,1080,1920,3.2026666666666666,
11,condition1,2,梯,帝,j,2262,130,帝,phon-phon,[],39,No,37,39,11,16,沒有,2,Male,"粵語, 英文",沒有,67a63dfc2e75257065647829,Chrome,Windows,1080,1920,3.2026666666666666,
11,condition1,2,儒,須,j,2110,131,須,phon-phon,[],39,No,37,39,11,16,沒有,2,Male,"粵語, 英文",沒有,67a63dfc2e75257065647829,Chrome,Windows,1080,1920,3.2026666666666666,
11,condition1,1,克,克,f,2257,132,服,sem-sem,[],39,No,37,39,11,16,沒有,2,Male,"粵語, 英文",沒有,67a63dfc2e75257065647829,Chrome,Windows,1080,1920,3.2026666666666666,
11,condition1,2,孩,侵,j,2211,133,侵,con,[],39,No,37,39,11,16,沒有,2,Male,"粵語, 英文",沒有,67a63dfc2e75257065647829,Chrome,Windows,1080,1920,3.2026666666666666,
11,condition1,1,搔,搔,f,2285,134,癢,sem-sem,[],39,No,37,39,11,16,沒有,2,Male,"粵語, 英文",沒有,67a63dfc2e75257065647829,Chrome,Windows,1080,1920,3.2026666666666666,
11,condition1,2,審,判,j,2126,135,判,sem-sem,[],39,No,37,39,11,16,沒有,2,Male,"粵語, 英文",沒有,67a63dfc2e75257065647829,Chrome,Windows,1080,1920,3.2026666666666666,
11,condition1,2,廁,所,j,2160,136,所,sem-sem,[],39,No,37,39,11,16,沒有,2,Male,"粵語, 英文",沒有,67a63dfc2e75257065647829,Chrome,Windows,1080,1920,3.2026666666666666,
11,condition1,1,踝,踝,f,2323,137,裹,phon-phon,[],39,No,37,39,11,16,沒有,2,Male,"粵語, 英文",沒有,67a63dfc2e75257065647829,Chrome,Windows,1080,1920,3.2026666666666666,
11,condition1,2,邏,輯,j,2396,138,輯,sem-sem,[],39,No,37,39,11,16,沒有,2,Male,"粵語, 英文",沒有,67a63dfc2e75257065647829,Chrome,Windows,1080,1920,3.2026666666666666,
11,condition1,1,厭,厭,f,2981,139,惡,sem-sem,[],39,No,37,39,11,16,沒有,2,Male,"粵語, 英文",沒有,67a63dfc2e75257065647829,Chrome,Windows,1080,1920,3.2026666666666666,
11,condition1,2,樣,輕,j,2635,140,輕,con,[],39,No,37,39,11,16,沒有,2,Male,"粵語, 英文",沒有,67a63dfc2e75257065647829,Chrome,Windows,1080,1920,3.2026666666666666,
11,condition1,1,板,板,f,2934,141,翻,phon-phon,[],39,No,37,39,11,16,沒有,2,Male,"粵語, 英文",沒有,67a63dfc2e75257065647829,Chrome,Windows,1080,1920,3.2026666666666666,
11,condition1,2,緊,張,j,2173,142,張,sem-sem,[],39,No,37,39,11,16,沒有,2,Male,"粵語, 英文",沒有,67a63dfc2e75257065647829,Chrome,Windows,1080,1920,3.2026666666666666,
11,condition1,2,健,立,j,2143,143,立,phon-sem,[],39,No,37,39,11,16,沒有,2,Male,"粵語, 英文",沒有,67a63dfc2e75257065647829,Chrome,Windows,1080,1920,3.2026666666666666,
11,condition1,2,結,即,j,2348,144,即,phon-phon,[],39,No,37,39,11,16,沒有,2,Male,"粵語, 英文",沒有,67a63dfc2e75257065647829,Chrome,Windows,1080,1920,3.2026666666666666,
11,condition1,2,炸,查,j,2217,145,查,con,[],39,No,37,39,11,16,沒有,2,Male,"粵語, 英文",沒有,67a63dfc2e75257065647829,Chrome,Windows,1080,1920,3.2026666666666666,
11,condition1,2,汐,陽,j,2096,146,陽,phon-sem,[],39,No,37,39,11,16,沒有,2,Male,"粵語, 英文",沒有,67a63dfc2e75257065647829,Chrome,Windows,1080,1920,3.2026666666666666,
11,condition1,2,擅,廉,j,2123,147,廉,con,[],39,No,37,39,11,16,沒有,2,Male,"粵語, 英文",沒有,67a63dfc2e75257065647829,Chrome,Windows,1080,1920,3.2026666666666666,
11,condition1,2,離,開,j,2253,148,開,sem-sem,[],39,No,37,39,11,16,沒有,2,Male,"粵語, 英文",沒有,67a63dfc2e75257065647829,Chrome,Windows,1080,1920,3.2026666666666666,
11,condition1,2,峽,述,j,2298,149,述,con,[],39,No,37,39,11,16,沒有,2,Male,"粵語, 英文",沒有,67a63dfc2e75257065647829,Chrome,Windows,1080,1920,3.2026666666666666,
11,condition1,2,湧,敢,j,2361,150,敢,phon-sem,[],39,No,37,39,11,16,沒有,2,Male,"粵語, 英文",沒有,67a63dfc2e75257065647829,Chrome,Windows,1080,1920,3.2026666666666666,
11,condition1,1,划,划,f,2490,152,船,sem-sem,[],39,No,37,39,11,16,沒有,2,Male,"粵語, 英文",沒有,67a63dfc2e75257065647829,Chrome,Windows,1080,1920,3.2026666666666666,
11,condition1,2,億,義,j,2182,153,義,phon-sem,[],39,No,37,39,11,16,沒有,2,Male,"粵語, 英文",沒有,67a63dfc2e75257065647829,Chrome,Windows,1080,1920,3.2026666666666666,
11,condition1,2,針,線,j,2162,154,線,sem-sem,[],39,No,37,39,11,16,沒有,2,Male,"粵語, 英文",沒有,67a63dfc2e75257065647829,Chrome,Windows,1080,1920,3.2026666666666666,
11,condition1,1,個,個,f,2872,155,故,phon-phon,[],39,No,37,39,11,16,沒有,2,Male,"粵語, 英文",沒有,67a63dfc2e75257065647829,Chrome,Windows,1080,1920,3.2026666666666666,
11,condition1,1,普,普,f,2847,156,通,sem-sem,[],39,No,37,39,11,16,沒有,2,Male,"粵語, 英文",沒有,67a63dfc2e75257065647829,Chrome,Windows,1080,1920,3.2026666666666666,
11,condition1,1,紛,紛,f,2670,157,析,phon-sem,[],39,No,37,39,11,16,沒有,2,Male,"粵語, 英文",沒有,67a63dfc2e75257065647829,Chrome,Windows,1080,1920,3.2026666666666666,
11,condition1,1,叫,叫,f,2494,158,六,con,[],39,No,37,39,11,16,沒有,2,Male,"粵語, 英文",沒有,67a63dfc2e75257065647829,Chrome,Windows,1080,1920,3.2026666666666666,
11,condition1,1,陌,陌,f,2707,159,擺,phon-phon,[],39,No,37,39,11,16,沒有,2,Male,"粵語, 英文",沒有,67a63dfc2e75257065647829,Chrome,Windows,1080,1920,3.2026666666666666,
11,condition1,1,倪,倪,f,2515,160,而,phon-phon,[],39,No,37,39,11,16,沒有,2,Male,"粵語, 英文",沒有,67a63dfc2e75257065647829,Chrome,Windows,1080,1920,3.2026666666666666,
11,condition1,1,烤,烤,f,2509,161,試,phon-sem,[],39,No,37,39,11,16,沒有,2,Male,"粵語, 英文",沒有,67a63dfc2e75257065647829,Chrome,Windows,1080,1920,3.2026666666666666,
11,condition1,2,根,候,j,2152,162,候,con,[],39,No,37,39,11,16,沒有,2,Male,"粵語, 英文",沒有,67a63dfc2e75257065647829,Chrome,Windows,1080,1920,3.2026666666666666,
11,condition1,2,城,功,j,2094,163,功,phon-sem,[],39,No,37,39,11,16,沒有,2,Male,"粵語, 英文",沒有,67a63dfc2e75257065647829,Chrome,Windows,1080,1920,3.2026666666666666,
11,condition1,2,瑰,殺,j,2102,164,殺,con,[],39,No,37,39,11,16,沒有,2,Male,"粵語, 英文",沒有,67a63dfc2e75257065647829,Chrome,Windows,1080,1920,3.2026666666666666,
11,condition1,2,企,天,j,2109,165,天,con,[],39,No,37,39,11,16,沒有,2,Male,"粵語, 英文",沒有,67a63dfc2e75257065647829,Chrome,Windows,1080,1920,3.2026666666666666,
11,condition1,2,銘,字,j,2054,166,字,phon-sem,[],39,No,37,39,11,16,沒有,2,Male,"粵語, 英文",沒有,67a63dfc2e75257065647829,Chrome,Windows,1080,1920,3.2026666666666666,
11,condition1,1,盔,盔,f,2605,167,甲,sem-sem,[],39,No,37,39,11,16,沒有,2,Male,"粵語, 英文",沒有,67a63dfc2e75257065647829,Chrome,Windows,1080,1920,3.2026666666666666,
11,condition1,1,輸,輸,f,2621,168,贏,sem-sem,[],39,No,37,39,11,16,沒有,2,Male,"粵語, 英文",沒有,67a63dfc2e75257065647829,Chrome,Windows,1080,1920,3.2026666666666666,
11,condition1,2,嬰,兒,j,2286,169,兒,sem-sem,[],39,No,37,39,11,16,沒有,2,Male,"粵語, 英文",沒有,67a63dfc2e75257065647829,Chrome,Windows,1080,1920,3.2026666666666666,
11,condition1,2,傢,人,j,2093,170,人,phon-sem,[],39,No,37,39,11,16,沒有,2,Male,"粵語, 英文",沒有,67a63dfc2e75257065647829,Chrome,Windows,1080,1920,3.2026666666666666,
11,condition1,1,儘,儘,f,2600,171,量,phon-sem,[],39,No,37,39,11,16,沒有,2,Male,"粵語, 英文",沒有,67a63dfc2e75257065647829,Chrome,Windows,1080,1920,3.2026666666666666,
11,condition1,1,矚,矚,f,2689,172,數,phon-phon,[],39,No,37,39,11,16,沒有,2,Male,"粵語, 英文",沒有,67a63dfc2e75257065647829,Chrome,Windows,1080,1920,3.2026666666666666,
11,condition1,1,泳,泳,f,2637,173,遠,phon-sem,[],39,No,37,39,11,16,沒有,2,Male,"粵語, 英文",沒有,67a63dfc2e75257065647829,Chrome,Windows,1080,1920,3.2026666666666666,
11,condition1,2,擺,霸,j,2308,174,霸,phon-phon,[],39,No,37,39,11,16,沒有,2,Male,"粵語, 英文",沒有,67a63dfc2e75257065647829,Chrome,Windows,1080,1920,3.2026666666666666,
11,condition1,1,陀,陀,f,2696,175,他,phon-phon,[],39,No,37,39,11,16,沒有,2,Male,"粵語, 英文",沒有,67a63dfc2e75257065647829,Chrome,Windows,1080,1920,3.2026666666666666,
11,condition1,2,黑,白,j,3294,176,白,sem-sem,[],39,No,37,39,11,16,沒有,2,Male,"粵語, 英文",沒有,67a63dfc2e75257065647829,Chrome,Windows,1080,1920,3.2026666666666666,
11,condition1,1,擾,擾,f,2897,177,悠,phon-phon,[],39,No,37,39,11,16,沒有,2,Male,"粵語, 英文",沒有,67a63dfc2e75257065647829,Chrome,Windows,1080,1920,3.2026666666666666,
11,condition1,2,跟,董,f,2695,178,董,con,[],39,No,37,39,11,16,沒有,2,Male,"粵語, 英文",沒有,67a63dfc2e75257065647829,Chrome,Windows,1080,1920,3.2026666666666666,
11,condition1,2,錶,示,j,2315,179,示,phon-sem,[],39,No,37,39,11,16,沒有,2,Male,"粵語, 英文",沒有,67a63dfc2e75257065647829,Chrome,Windows,1080,1920,3.2026666666666666,
11,condition1,2,佑,左,j,2238,180,左,phon-sem,[],39,No,37,39,11,16,沒有,2,Male,"粵語, 英文",沒有,67a63dfc2e75257065647829,Chrome,Windows,1080,1920,3.2026666666666666,
11,condition1,2,浪,涼,j,2125,181,涼,phon-phon,[],39,No,37,39,11,16,沒有,2,Male,"粵語, 英文",沒有,67a63dfc2e75257065647829,Chrome,Windows,1080,1920,3.2026666666666666,
11,condition1,2,早,晚,j,2074,182,晚,sem-sem,[],39,No,37,39,11,16,沒有,2,Male,"粵語, 英文",沒有,67a63dfc2e75257065647829,Chrome,Windows,1080,1920,3.2026666666666666,
11,condition1,1,形,形,f,2648,183,再,con,[],39,No,37,39,11,16,沒有,2,Male,"粵語, 英文",沒有,67a63dfc2e75257065647829,Chrome,Windows,1080,1920,3.2026666666666666,
11,condition1,1,迅,迅,f,4775,184,速,sem-sem,[],39,No,37,39,11,16,沒有,2,Male,"粵語, 英文",沒有,67a63dfc2e75257065647829,Chrome,Windows,1080,1920,3.2026666666666666,
11,condition1,2,稻,米,j,2557,185,米,sem-sem,[],39,No,37,39,11,16,沒有,2,Male,"粵語, 英文",沒有,67a63dfc2e75257065647829,Chrome,Windows,1080,1920,3.2026666666666666,
11,condition1,1,轎,轎,f,2576,186,瞧,phon-phon,[],39,No,37,39,11,16,沒有,2,Male,"粵語, 英文",沒有,67a63dfc2e75257065647829,Chrome,Windows,1080,1920,3.2026666666666666,
11,condition1,2,尷,尬,j,2942,187,尬,sem-sem,[],39,No,37,39,11,16,沒有,2,Male,"粵語, 英文",沒有,67a63dfc2e75257065647829,Chrome,Windows,1080,1920,3.2026666666666666,
11,condition1,1,勵,勵,f,2557,188,害,phon-sem,[],39,No,37,39,11,16,沒有,2,Male,"粵語, 英文",沒有,67a63dfc2e75257065647829,Chrome,Windows,1080,1920,3.2026666666666666,
11,condition1,2,線,權,j,2180,189,權,phon-phon,[],39,No,37,39,11,16,沒有,2,Male,"粵語, 英文",沒有,67a63dfc2e75257065647829,Chrome,Windows,1080,1920,3.2026666666666666,
11,condition1,1,諷,諷,f,2315,190,刺,sem-sem,[],39,No,37,39,11,16,沒有,2,Male,"粵語, 英文",沒有,67a63dfc2e75257065647829,Chrome,Windows,1080,1920,3.2026666666666666,
8,condition1,1,擅,擅,j,4068,8,廉,con,[],33,No,18,33,18,0,,4,Female,汉语 英语,,615d051e2366aeb051acb734,Chrome,Mac,1080,1920,3.02415,
8,condition1,1,湧,湧,f,2304,9,敢,phon-sem,[],33,No,18,33,18,0,,4,Female,汉语 英语,,615d051e2366aeb051acb734,Chrome,Mac,1080,1920,3.02415,
8,condition1,2,附,出,j,2642,10,出,phon-sem,[],33,No,18,33,18,0,,4,Female,汉语 英语,,615d051e2366aeb051acb734,Chrome,Mac,1080,1920,3.02415,
8,condition1,1,棋,棋,f,2386,11,實,phon-sem,[],33,No,18,33,18,0,,4,Female,汉语 英语,,615d051e2366aeb051acb734,Chrome,Mac,1080,1920,3.02415,
8,condition1,2,憾,敢,j,2296,12,敢,phon-phon,[],33,No,18,33,18,0,,4,Female,汉语 英语,,615d051e2366aeb051acb734,Chrome,Mac,1080,1920,3.02415,
8,condition1,1,騙,騙,f,2285,13,貶,phon-phon,[],33,No,18,33,18,0,,4,Female,汉语 英语,,615d051e2366aeb051acb734,Chrome,Mac,1080,1920,3.02415,
8,condition1,2,囚,犯,j,2033,14,犯,sem-sem,[],33,No,18,33,18,0,,4,Female,汉语 英语,,615d051e2366aeb051acb734,Chrome,Mac,1080,1920,3.02415,
8,condition1,1,銀,銀,f,2299,15,蓋,con,[],33,No,18,33,18,0,,4,Female,汉语 英语,,615d051e2366aeb051acb734,Chrome,Mac,1080,1920,3.02415,
8,condition1,1,危,危,f,2355,16,險,sem-sem,[],33,No,18,33,18,0,,4,Female,汉语 英语,,615d051e2366aeb051acb734,Chrome,Mac,1080,1920,3.02415,
8,condition1,2,擁,賞,f,2252,17,賞,con,[],33,No,18,33,18,0,,4,Female,汉语 英语,,615d051e2366aeb051acb734,Chrome,Mac,1080,1920,3.02415,
8,condition1,2,炸,查,j,2632,18,查,con,[],33,No,18,33,18,0,,4,Female,汉语 英语,,615d051e2366aeb051acb734,Chrome,Mac,1080,1920,3.02415,
8,condition1,1,冰,冰,f,2338,19,冷,sem-sem,[],33,No,18,33,18,0,,4,Female,汉语 英语,,615d051e2366aeb051acb734,Chrome,Mac,1080,1920,3.02415,
8,condition1,1,浪,浪,j,2319,20,涼,phon-phon,[],33,No,18,33,18,0,,4,Female,汉语 英语,,615d051e2366aeb051acb734,Chrome,Mac,1080,1920,3.02415,
8,condition1,1,繪,繪,f,5131,21,港,con,[],33,No,18,33,18,0,,4,Female,汉语 英语,,615d051e2366aeb051acb734,Chrome,Mac,1080,1920,3.02415,
8,condition1,2,締,國,j,2471,22,國,phon-sem,[],33,No,18,33,18,0,,4,Female,汉语 英语,,615d051e2366aeb051acb734,Chrome,Mac,1080,1920,3.02415,
8,condition1,2,盪,棍,j,2273,23,棍,con,[],33,No,18,33,18,0,,4,Female,汉语 英语,,615d051e2366aeb051acb734,Chrome,Mac,1080,1920,3.02415,
8,condition1,2,拒,大,j,2497,24,大,phon-sem,[],33,No,18,33,18,0,,4,Female,汉语 英语,,615d051e2366aeb051acb734,Chrome,Mac,1080,1920,3.02415,
8,condition1,2,稀,望,j,2362,25,望,phon-sem,[],33,No,18,33,18,0,,4,Female,汉语 英语,,615d051e2366aeb051acb734,Chrome,Mac,1080,1920,3.02415,
8,condition1,2,根,候,j,2363,26,候,con,[],33,No,18,33,18,0,,4,Female,汉语 英语,,615d051e2366aeb051acb734,Chrome,Mac,1080,1920,3.02415,
8,condition1,2,普,通,j,2383,27,通,sem-sem,[],33,No,18,33,18,0,,4,Female,汉语 英语,,615d051e2366aeb051acb734,Chrome,Mac,1080,1920,3.02415,
8,condition1,2,錶,示,j,2206,28,示,phon-sem,[],33,No,18,33,18,0,,4,Female,汉语 英语,,615d051e2366aeb051acb734,Chrome,Mac,1080,1920,3.02415,
